Application:, Trigno Discover (1.6.5)
Date/Time:, 26/03/2024 10:44:37
Collection Length (seconds):, 7.7625
Femur Anterior (75657), , , , , , , , , , , , Femur Lateral (75758), , , , , , , , , , , , Tibia Anterior (75557), , , , , , , , , , , , Tibia Lateral (75812)
sensor mode: 609, , , , , , , , , , , , sensor mode: 609, , , , , , , , , , , , sensor mode: 609, , , , , , , , , , , , sensor mode: 609
ACC X Time Series (s), ACC X (G), ACC Y Time Series (s), ACC Y (G), ACC Z Time Series (s), ACC Z (G), GYRO X Time Series (s), GYRO X (deg/s), GYRO Y Time Series (s), GYRO Y (deg/s), GYRO Z Time Series (s), GYRO Z (deg/s), ACC X Time Series (s), ACC X (G), ACC Y Time Series (s), ACC Y (G), ACC Z Time Series (s), ACC Z (G), GYRO X Time Series (s), GYRO X (deg/s), GYRO Y Time Series (s), GYRO Y (deg/s), GYRO Z Time Series (s), GYRO Z (deg/s), ACC X Time Series (s), ACC X (G), ACC Y Time Series (s), ACC Y (G), ACC Z Time Series (s), ACC Z (G), GYRO X Time Series (s), GYRO X (deg/s), GYRO Y Time Series (s), GYRO Y (deg/s), GYRO Z Time Series (s), GYRO Z (deg/s), ACC X Time Series (s), ACC X (G), ACC Y Time Series (s), ACC Y (G), ACC Z Time Series (s), ACC Z (G), GYRO X Time Series (s), GYRO X (deg/s), GYRO Y Time Series (s), GYRO Y (deg/s), GYRO Z Time Series (s), GYRO Z (deg/s)
, 370.3704 Hz, , 370.3704 Hz, , 370.3704 Hz, , 370.3704 Hz, , 370.3704 Hz, , 370.3704 Hz, , 370.3704 Hz, , 370.3704 Hz, , 370.3704 Hz, , 370.3704 Hz, , 370.3704 Hz, , 370.3704 Hz, , 370.3704 Hz, , 370.3704 Hz, , 370.3704 Hz, , 370.3704 Hz, , 370.3704 Hz, , 370.3704 Hz, , 370.3704 Hz, , 370.3704 Hz, , 370.3704 Hz, , 370.3704 Hz, , 370.3704 Hz, , 370.3704 Hz
0, -0.1591797, 0, -0.9799805, 0, -0.2158203, 0, -22.6219521, 0, 6.7682929, 0, 0.2439024, 0, 0.0053711, 0, -0.9755859, 0, -0.3120117, 0, 9.7560978, 0, 5.5487804, 0, 3.2926829, 0, -0.0678711, 0, -0.9736328, 0, -0.2851562, 0, -2.804878, 0, 1.0365853, 0, -0.9756098, 0, 0.1269531, 0, -0.9897461, 0, -0.2412109, 0, -14.8780489, 0, -4.2682929, 0, 2.9878049
0.0027, -0.1586914, 0.0027, -0.9804688, 0.0027, -0.2094727, 0.0027, -23.0487804, 0.0027, 6.4024391, 0.0027, 0.1219512, 0.0027, 0.0068359, 0.0027, -0.9785156, 0.0027, -0.3134766, 0.0027, 9.3902445, 0.0027, 6.5243902, 0.0027, 2.9878049, 0.0027, -0.0693359, 0.0027, -0.9755859, 0.0027, -0.2890625, 0.0027, -2.8658538, 0.0027, 1.402439, 0.0027, -0.8536586, 0.0027, 0.1264648, 0.0027, -0.9892578, 0.0027, -0.2368164, 0.0027, -14.3902445, 0.0027, -3.7195122, 0.0027, 2.8658538
0.0054, -0.1552734, 0.0054, -0.980957, 0.0054, -0.2055664, 0.0054, -23.0487804, 0.0054, 6.2195125, 0.0054, 0.1829268, 0.0054, 0.0087891, 0.0054, -0.9780273, 0.0054, -0.3144531, 0.0054, 9.2682924, 0.0054, 7.5609756, 0.0054, 3.1707318, 0.0054, -0.0756836, 0.0054, -0.9746094, 0.0054, -0.2871094, 0.0054, -2.6219513, 0.0054, 1.8902439, 0.0054, -0.9146342, 0.0054, 0.125, 0.0054, -0.9921875, 0.0054, -0.2392578, 0.0054, -14.4512196, 0.0054, -2.9878049, 0.0054, 3.1707318
0.0081, -0.1518555, 0.0081, -0.9868164, 0.0081, -0.2099609, 0.0081, -23.1707325, 0.0081, 6.280488, 0.0081, 0.2439024, 0.0081, 0.0073242, 0.0081, -0.9819336, 0.0081, -0.315918, 0.0081, 9.0243902, 0.0081, 8.4146347, 0.0081, 3.1707318, 0.0081, -0.0800781, 0.0081, -0.9731445, 0.0081, -0.2861328, 0.0081, -2.5, 0.0081, 2.5, 0.0081, -0.7926829, 0.0081, 0.1254883, 0.0081, -0.9848633, 0.0081, -0.2407227, 0.0081, -14.3902445, 0.0081, -1.7682927, 0.0081, 3.3536587
0.0108, -0.1469727, 0.0108, -0.9882812, 0.0108, -0.2041016, 0.0108, -22.560976, 0.0108, 5.8536587, 0.0108, 0.1829268, 0.0108, 0.0068359, 0.0108, -0.9833984, 0.0108, -0.3183594, 0.0108, 9.2682924, 0.0108, 8.719512, 0.0108, 3.3536587, 0.0108, -0.0791016, 0.0108, -0.9780273, 0.0108, -0.2861328, 0.0108, -2.4390244, 0.0108, 2.9878049, 0.0108, -1.097561, 0.0108, 0.1171875, 0.0108, -0.9873047, 0.0108, -0.2368164, 0.0108, -14.2073174, 0.0108, -0.9146342, 0.0108, 3.2926829
0.0135, -0.1494141, 0.0135, -0.9907227, 0.0135, -0.2075195, 0.0135, -22.3780499, 0.0135, 6.2195125, 0.0135, 0.3048781, 0.0135, 0.0058594, 0.0135, -0.984375, 0.0135, -0.3110352, 0.0135, 9.0243902, 0.0135, 9.8170738, 0.0135, 3.1097562, 0.0135, -0.0854492, 0.0135, -0.9765625, 0.0135, -0.284668, 0.0135, -2.2560976, 0.0135, 2.804878, 0.0135, -0.7317073, 0.0135, 0.112793, 0.0135, -0.9863281, 0.0135, -0.2338867, 0.0135, -14.5731707, 0.0135, 0.1829268, 0.0135, 3.0487804
0.0162, -0.1484375, 0.0162, -0.9936523, 0.0162, -0.2026367, 0.0162, -21.7073174, 0.0162, 6.0975609, 0.0162, 0.1219512, 0.0162, 0.0024414, 0.0162, -0.9848633, 0.0162, -0.3085938, 0.0162, 9.1463413, 0.0162, 9.5731707, 0.0162, 3.0487804, 0.0162, -0.0869141, 0.0162, -0.9765625, 0.0162, -0.2817383, 0.0162, -2.4390244, 0.0162, 1.8902439, 0.0162, -1.0365853, 0.0162, 0.0966797, 0.0162, -0.9838867, 0.0162, -0.2319336, 0.0162, -14.3292685, 0.0162, 0.4268293, 0.0162, 3.2926829
0.0189, -0.1469727, 0.0189, -0.9941406, 0.0189, -0.2021484, 0.0189, -21.5243912, 0.0189, 6.1585369, 0.0189, -0.2439024, 0.0189, -0.0053711, 0.0189, -0.9907227, 0.0189, -0.3041992, 0.0189, 9.2682924, 0.0189, 9.3292685, 0.0189, 2.9268293, 0.0189, -0.09375, 0.0189, -0.9736328, 0.0189, -0.284668, 0.0189, -2.5609756, 0.0189, 1.2195122, 0.0189, -1.097561, 0.0189, 0.0981445, 0.0189, -0.984375, 0.0189, -0.2319336, 0.0189, -14.3292685, 0.0189, 0.4878049, 0.0189, 3.1707318
0.0216, -0.1455078, 0.0216, -0.9985352, 0.0216, -0.203125, 0.0216, -21.4024391, 0.0216, 6.0365853, 0.0216, 0, 0.0216, -0.0043945, 0.0216, -0.9897461, 0.0216, -0.3027344, 0.0216, 9.3292685, 0.0216, 8.780488, 0.0216, 3.1097562, 0.0216, -0.0952148, 0.0216, -0.9770508, 0.0216, -0.28125, 0.0216, -2.3170731, 0.0216, -0.1829268, 0.0216, -1.4634147, 0.0216, 0.0883789, 0.0216, -0.9887695, 0.0216, -0.2324219, 0.0216, -14.5121956, 0.0216, 0.1829268, 0.0216, 3.1707318
0.0243, -0.1430664, 0.0243, -0.9980469, 0.0243, -0.2036133, 0.0243, -21.0365868, 0.0243, 6.0975609, 0.0243, -0.4268293, 0.0243, -0.0053711, 0.0243, -0.9902344, 0.0243, -0.3017578, 0.0243, 9.5731707, 0.0243, 7.9878049, 0.0243, 3.1097562, 0.0243, -0.0966797, 0.0243, -0.9775391, 0.0243, -0.2836914, 0.0243, -2.5, 0.0243, -1.7682927, 0.0243, -1.097561, 0.0243, 0.0874023, 0.0243, -0.9916992, 0.0243, -0.2333984, 0.0243, -14.5731707, 0.0243, -0.7926829, 0.0243, 3.2926829
0.027, -0.1396484, 0.027, -0.9907227, 0.027, -0.2070312, 0.027, -21.4024391, 0.027, 6.0975609, 0.027, -0.4268293, 0.027, -0.0043945, 0.027, -0.9931641, 0.027, -0.3027344, 0.027, 9.7560978, 0.027, 7.4390244, 0.027, 3.0487804, 0.027, -0.0961914, 0.027, -0.9770508, 0.027, -0.2866211, 0.027, -2.3170731, 0.027, -2.2560976, 0.027, -1.402439, 0.027, 0.0869141, 0.027, -0.9926758, 0.027, -0.2275391, 0.027, -14.5731707, 0.027, -1.8292683, 0.027, 3.6585367
0.0297, -0.1435547, 0.0297, -0.9892578, 0.0297, -0.206543, 0.0297, -21.2195129, 0.0297, 6.1585369, 0.0297, -0.4268293, 0.0297, -0.0024414, 0.0297, -0.9902344, 0.0297, -0.3022461, 0.0297, 10.3048782, 0.0297, 6.4024391, 0.0297, 3.1097562, 0.0297, -0.090332, 0.0297, -0.9804688, 0.0297, -0.284668, 0.0297, -2.6219513, 0.0297, -4.2073174, 0.0297, -1.402439, 0.0297, 0.081543, 0.0297, -0.9882812, 0.0297, -0.2231445, 0.0297, -14.8170738, 0.0297, -3.5365853, 0.0297, 3.6585367
0.0324, -0.1445312, 0.0324, -0.9916992, 0.0324, -0.2119141, 0.0324, -21.4024391, 0.0324, 6.0365853, 0.0324, -0.0609756, 0.0324, 0, 0.0324, -0.9912109, 0.0324, -0.3032227, 0.0324, 10.060976, 0.0324, 5.9756098, 0.0324, 2.9878049, 0.0324, -0.090332, 0.0324, -0.9829102, 0.0324, -0.2929688, 0.0324, -2.3780489, 0.0324, -4.8780489, 0.0324, -1.402439, 0.0324, 0.0825195, 0.0324, -0.9916992, 0.0324, -0.222168, 0.0324, -15.060976, 0.0324, -5.0609756, 0.0324, 3.8414636
0.0351, -0.1459961, 0.0351, -0.9956055, 0.0351, -0.2114258, 0.0351, -21.6463413, 0.0351, 6.1585369, 0.0351, -0.1219512, 0.0351, 0, 0.0351, -0.9892578, 0.0351, -0.3012695, 0.0351, 10.5487804, 0.0351, 5.1219511, 0.0351, 2.9268293, 0.0351, -0.0854492, 0.0351, -0.9829102, 0.0351, -0.2963867, 0.0351, -2.2560976, 0.0351, -6.0365853, 0.0351, -1.5853659, 0.0351, 0.0854492, 0.0351, -0.9941406, 0.0351, -0.2216797, 0.0351, -15, 0.0351, -5.7317076, 0.0351, 3.7804878
0.0378, -0.1396484, 0.0378, -0.9912109, 0.0378, -0.2094727, 0.0378, -21.7073174, 0.0378, 6.4634147, 0.0378, 0, 0.0378, 0.0048828, 0.0378, -0.9907227, 0.0378, -0.3022461, 0.0378, 10.2439022, 0.0378, 5, 0.0378, 2.804878, 0.0378, -0.0791016, 0.0378, -0.9804688, 0.0378, -0.293457, 0.0378, -2.195122, 0.0378, -6.1585369, 0.0378, -1.6463414, 0.0378, 0.0913086, 0.0378, -0.9970703, 0.0378, -0.2202148, 0.0378, -14.9390249, 0.0378, -7.2560978, 0.0378, 3.9024391
0.0405, -0.144043, 0.0405, -0.9868164, 0.0405, -0.2133789, 0.0405, -22.1341476, 0.0405, 6.4634147, 0.0405, -0.2439024, 0.0405, 0.0092773, 0.0405, -0.9902344, 0.0405, -0.3056641, 0.0405, 10.3048782, 0.0405, 5.0609756, 0.0405, 2.6219513, 0.0405, -0.0756836, 0.0405, -0.9799805, 0.0405, -0.293457, 0.0405, -1.7073171, 0.0405, -6.0365853, 0.0405, -1.3414634, 0.0405, 0.097168, 0.0405, -0.9985352, 0.0405, -0.2172852, 0.0405, -15.3048782, 0.0405, -8.1097565, 0.0405, 3.9634147
0.0432, -0.1396484, 0.0432, -0.9863281, 0.0432, -0.2119141, 0.0432, -22.3780499, 0.0432, 6.5853658, 0.0432, -0.4268293, 0.0432, 0.0068359, 0.0432, -0.9897461, 0.0432, -0.3051758, 0.0432, 10.1219511, 0.0432, 5, 0.0432, 2.5609756, 0.0432, -0.0605469, 0.0432, -0.9726562, 0.0432, -0.293457, 0.0432, -1.8902439, 0.0432, -5.670732, 0.0432, -1.7073171, 0.0432, 0.1088867, 0.0432, -1.003418, 0.0432, -0.2158203, 0.0432, -14.6951227, 0.0432, -9.2073174, 0.0432, 4.1463413
0.0459, -0.1430664, 0.0459, -0.9829102, 0.0459, -0.2099609, 0.0459, -22.7439022, 0.0459, 6.3414636, 0.0459, -0.1219512, 0.0459, 0.0078125, 0.0459, -0.9858398, 0.0459, -0.3051758, 0.0459, 10.3658543, 0.0459, 5.1829271, 0.0459, 2.5609756, 0.0459, -0.0585938, 0.0459, -0.9746094, 0.0459, -0.2958984, 0.0459, -1.7073171, 0.0459, -4.2682929, 0.0459, -1.2804878, 0.0459, 0.1157227, 0.0459, -1.0029297, 0.0459, -0.2148438, 0.0459, -14.5731707, 0.0459, -9.8170738, 0.0459, 4.2073174
0.0486, -0.1420898, 0.0486, -0.980957, 0.0486, -0.206543, 0.0486, -22.9878063, 0.0486, 6.280488, 0.0486, -0.5487805, 0.0486, 0.0131836, 0.0486, -0.9829102, 0.0486, -0.3085938, 0.0486, 10.3048782, 0.0486, 5.5487804, 0.0486, 2.5609756, 0.0486, -0.0585938, 0.0486, -0.9711914, 0.0486, -0.2939453, 0.0486, -1.9512196, 0.0486, -3.9024391, 0.0486, -1.2804878, 0.0486, 0.1323242, 0.0486, -0.9975586, 0.0486, -0.2182617, 0.0486, -14.0243902, 0.0486, -10.3658543, 0.0486, 4.1463413
0.0513, -0.140625, 0.0513, -0.9848633, 0.0513, -0.2050781, 0.0513, -22.9268303, 0.0513, 5.7926831, 0.0513, -0.6707317, 0.0513, 0.0141602, 0.0513, -0.9833984, 0.0513, -0.3105469, 0.0513, 10.4268293, 0.0513, 5.9146342, 0.0513, 2.3170731, 0.0513, -0.0566406, 0.0513, -0.972168, 0.0513, -0.2915039, 0.0513, -1.8902439, 0.0513, -2.9268293, 0.0513, -1.1585366, 0.0513, 0.1396484, 0.0513, -0.9926758, 0.0513, -0.2290039, 0.0513, -13.780488, 0.0513, -10.3658543, 0.0513, 4.0853658
0.054, -0.1362305, 0.054, -0.9829102, 0.054, -0.2045898, 0.054, -23.0487804, 0.054, 5.7317076, 0.054, -0.3658537, 0.054, 0.0219727, 0.054, -0.9814453, 0.054, -0.3120117, 0.054, 10.1829271, 0.054, 5.9146342, 0.054, 2.4390244, 0.054, -0.0581055, 0.054, -0.9716797, 0.054, -0.2939453, 0.054, -1.8902439, 0.054, -2.6219513, 0.054, -1.1585366, 0.054, 0.1464844, 0.054, -0.9902344, 0.054, -0.2299805, 0.054, -13.6585369, 0.054, -9.5731707, 0.054, 4.1463413
0.0567, -0.1357422, 0.0567, -0.980957, 0.0567, -0.2119141, 0.0567, -23.0487804, 0.0567, 5.5487804, 0.0567, -0.1829268, 0.0567, 0.0209961, 0.0567, -0.9790039, 0.0567, -0.3125, 0.0567, 10.2439022, 0.0567, 6.8292685, 0.0567, 2.3780489, 0.0567, -0.0605469, 0.0567, -0.9697266, 0.0567, -0.2929688, 0.0567, -1.8902439, 0.0567, -2.6219513, 0.0567, -1.2804878, 0.0567, 0.1474609, 0.0567, -0.9819336, 0.0567, -0.2363281, 0.0567, -13.2317076, 0.0567, -9.0243902, 0.0567, 4.2073174
0.0594, -0.137207, 0.0594, -0.9858398, 0.0594, -0.2128906, 0.0594, -22.8658543, 0.0594, 5.609756, 0.0594, -0.6097561, 0.0594, 0.0195312, 0.0594, -0.9785156, 0.0594, -0.3183594, 0.0594, 10.3048782, 0.0594, 6.890244, 0.0594, 2.3780489, 0.0594, -0.0629883, 0.0594, -0.9750977, 0.0594, -0.2915039, 0.0594, -1.7073171, 0.0594, -2.9268293, 0.0594, -1.3414634, 0.0594, 0.1533203, 0.0594, -0.9785156, 0.0594, -0.2416992, 0.0594, -13.6585369, 0.0594, -6.7073174, 0.0594, 4.0853658
0.0621, -0.1376953, 0.0621, -0.9907227, 0.0621, -0.2143555, 0.0621, -22.9268303, 0.0621, 5.7926831, 0.0621, -0.6707317, 0.0621, 0.0175781, 0.0621, -0.9770508, 0.0621, -0.3203125, 0.0621, 9.6341467, 0.0621, 8.0487804, 0.0621, 1.8902439, 0.0621, -0.065918, 0.0621, -0.96875, 0.0621, -0.2890625, 0.0621, -1.5243902, 0.0621, -2.7439024, 0.0621, -1.097561, 0.0621, 0.1469727, 0.0621, -0.9750977, 0.0621, -0.246582, 0.0621, -13.6585369, 0.0621, -5.4878049, 0.0621, 4.2073174
0.0648, -0.1323242, 0.0648, -0.9941406, 0.0648, -0.2138672, 0.0648, -22.9878063, 0.0648, 6.4024391, 0.0648, -0.3658537, 0.0648, 0.0161133, 0.0648, -0.9765625, 0.0648, -0.3212891, 0.0648, 9.7560978, 0.0648, 8.4756098, 0.0648, 1.9512196, 0.0648, -0.0664062, 0.0648, -0.9707031, 0.0648, -0.2919922, 0.0648, -1.7073171, 0.0648, -2.6219513, 0.0648, -0.9756098, 0.0648, 0.1459961, 0.0648, -0.9755859, 0.0648, -0.2451172, 0.0648, -14.5731707, 0.0648, -3.1707318, 0.0648, 4.0243902
0.0675, -0.1318359, 0.0675, -0.9936523, 0.0675, -0.2104492, 0.0675, -22.8048782, 0.0675, 7.1341467, 0.0675, -0.6097561, 0.0675, 0.015625, 0.0675, -0.9794922, 0.0675, -0.3212891, 0.0675, 9.4512196, 0.0675, 9.2073174, 0.0675, 1.9512196, 0.0675, -0.0664062, 0.0675, -0.9731445, 0.0675, -0.2910156, 0.0675, -1.5853659, 0.0675, -2.0731707, 0.0675, -1.2195122, 0.0675, 0.1376953, 0.0675, -0.9750977, 0.0675, -0.2426758, 0.0675, -15.3048782, 0.0675, -2.2560976, 0.0675, 4.0243902
0.0702, -0.1264648, 0.0702, -0.9921875, 0.0702, -0.2104492, 0.0702, -22.5, 0.0702, 7.7439027, 0.0702, -0.7317073, 0.0702, 0.0107422, 0.0702, -0.9833984, 0.0702, -0.3222656, 0.0702, 9.0853662, 0.0702, 9.5731707, 0.0702, 1.8902439, 0.0702, -0.0688477, 0.0702, -0.9716797, 0.0702, -0.2944336, 0.0702, -1.4634147, 0.0702, -0.7926829, 0.0702, -1.1585366, 0.0702, 0.1328125, 0.0702, -0.9790039, 0.0702, -0.2402344, 0.0702, -16.0365849, 0.0702, -1.1585366, 0.0702, 3.9634147
0.0729, -0.1289062, 0.0729, -0.9936523, 0.0729, -0.2089844, 0.0729, -22.0121956, 0.0729, 8.5365858, 0.0729, -0.9146342, 0.0729, 0.0068359, 0.0729, -0.9814453, 0.0729, -0.3198242, 0.0729, 8.9024391, 0.0729, 9.5731707, 0.0729, 1.9512196, 0.0729, -0.0698242, 0.0729, -0.9741211, 0.0729, -0.296875, 0.0729, -1.3414634, 0.0729, -0.5487805, 0.0729, -1.097561, 0.0729, 0.1259766, 0.0729, -0.987793, 0.0729, -0.2304688, 0.0729, -16.7073174, 0.0729, -1.2804878, 0.0729, 4.0853658
0.0756, -0.1303711, 0.0756, -0.9946289, 0.0756, -0.2026367, 0.0756, -21.7073174, 0.0756, 9.2682924, 0.0756, -1.0365853, 0.0756, 0.0058594, 0.0756, -0.9814453, 0.0756, -0.3144531, 0.0756, 8.780488, 0.0756, 9.2682924, 0.0756, 2.0121951, 0.0756, -0.0649414, 0.0756, -0.9707031, 0.0756, -0.2939453, 0.0756, -1.3414634, 0.0756, -0.2439024, 0.0756, -1.097561, 0.0756, 0.1206055, 0.0756, -0.9912109, 0.0756, -0.2250977, 0.0756, -16.280489, 0.0756, -1.5853659, 0.0756, 4.0243902
0.0783, -0.1289062, 0.0783, -0.9897461, 0.0783, -0.2016602, 0.0783, -21.280489, 0.0783, 9.9390249, 0.0783, -1.2195122, 0.0783, 0.0058594, 0.0783, -0.9848633, 0.0783, -0.3095703, 0.0783, 9.0243902, 0.0783, 9.0853662, 0.0783, 2.2560976, 0.0783, -0.0673828, 0.0783, -0.972168, 0.0783, -0.2880859, 0.0783, -1.4634147, 0.0783, 0, 0.0783, -1.1585366, 0.0783, 0.1147461, 0.0783, -0.996582, 0.0783, -0.2167969, 0.0783, -15.9146347, 0.0783, -2.0121951, 0.0783, 3.9024391
0.081, -0.1298828, 0.081, -0.9936523, 0.081, -0.2001953, 0.081, -20.7926826, 0.081, 10.9146347, 0.081, -1.2195122, 0.081, 0.0009766, 0.081, -0.9858398, 0.081, -0.3071289, 0.081, 9.0853662, 0.081, 8.4756098, 0.081, 2.3780489, 0.081, -0.0639648, 0.081, -0.9716797, 0.081, -0.2871094, 0.081, -1.2804878, 0.081, 0.6707317, 0.081, -1.097561, 0.081, 0.1142578, 0.081, -0.9970703, 0.081, -0.2172852, 0.081, -15.4878054, 0.081, -2.2560976, 0.081, 3.9634147
0.0837, -0.1352539, 0.0837, -0.9897461, 0.0837, -0.2006836, 0.0837, -20.3658543, 0.0837, 11.341464, 0.0837, -1.2804878, 0.0837, 0.0048828, 0.0837, -0.9829102, 0.0837, -0.3041992, 0.0837, 9.2073174, 0.0837, 8.1097565, 0.0837, 2.195122, 0.0837, -0.0678711, 0.0837, -0.9731445, 0.0837, -0.2841797, 0.0837, -1.2195122, 0.0837, 1.2195122, 0.0837, -1.0365853, 0.0837, 0.1088867, 0.0837, -0.9941406, 0.0837, -0.2226562, 0.0837, -14.3902445, 0.0837, -2.6829269, 0.0837, 4.390244
0.0864, -0.1411133, 0.0864, -0.9887695, 0.0864, -0.1948242, 0.0864, -20.3048782, 0.0864, 11.4024391, 0.0864, -1.2195122, 0.0864, 0.0029297, 0.0864, -0.9829102, 0.0864, -0.3056641, 0.0864, 9.7560978, 0.0864, 7.3780489, 0.0864, 2.195122, 0.0864, -0.0683594, 0.0864, -0.9780273, 0.0864, -0.2851562, 0.0864, -1.097561, 0.0864, 1.7682927, 0.0864, -1.1585366, 0.0864, 0.1054688, 0.0864, -0.9926758, 0.0864, -0.2285156, 0.0864, -14.1463413, 0.0864, -2.6219513, 0.0864, 4.5731707
0.0891, -0.1416016, 0.0891, -0.9873047, 0.0891, -0.1967773, 0.0891, -20.3658543, 0.0891, 11.280488, 0.0891, -1.1585366, 0.0891, 0.0043945, 0.0891, -0.9819336, 0.0891, -0.3027344, 0.0891, 10.060976, 0.0891, 7.2560978, 0.0891, 2.1341465, 0.0891, -0.0708008, 0.0891, -0.9755859, 0.0891, -0.2856445, 0.0891, -0.9756098, 0.0891, 2.0121951, 0.0891, -1.0365853, 0.0891, 0.1074219, 0.0891, -0.9916992, 0.0891, -0.230957, 0.0891, -14.3902445, 0.0891, -2.6829269, 0.0891, 4.5731707
0.0918, -0.1435547, 0.0918, -0.9897461, 0.0918, -0.2026367, 0.0918, -20.1219521, 0.0918, 10.9756098, 0.0918, -1.097561, 0.0918, 0.0058594, 0.0918, -0.9829102, 0.0918, -0.2983398, 0.0918, 10.1219511, 0.0918, 6.890244, 0.0918, 2.1341465, 0.0918, -0.0717773, 0.0918, -0.9736328, 0.0918, -0.284668, 0.0918, -1.2195122, 0.0918, 2.6829269, 0.0918, -1.0365853, 0.0918, 0.1049805, 0.0918, -0.984375, 0.0918, -0.2387695, 0.0918, -14.2682934, 0.0918, -2.5, 0.0918, 4.6951222
0.0945, -0.1499023, 0.0945, -0.9848633, 0.0945, -0.2041016, 0.0945, -20.3658543, 0.0945, 10.8536587, 0.0945, -1.2804878, 0.0945, 0.0063477, 0.0945, -0.9853516, 0.0945, -0.2988281, 0.0945, 10.4878054, 0.0945, 7.0731707, 0.0945, 1.8902439, 0.0945, -0.0766602, 0.0945, -0.9770508, 0.0945, -0.2856445, 0.0945, -1.2195122, 0.0945, 2.8658538, 0.0945, -0.6097561, 0.0945, 0.1069336, 0.0945, -0.9829102, 0.0945, -0.2431641, 0.0945, -14.6341467, 0.0945, -1.6463414, 0.0945, 4.7560978
0.0972, -0.1523438, 0.0972, -0.9858398, 0.0972, -0.206543, 0.0972, -20.6707325, 0.0972, 9.9390249, 0.0972, -0.9146342, 0.0972, 0.0073242, 0.0972, -0.984375, 0.0972, -0.2993164, 0.0972, 10.7926836, 0.0972, 7.6829271, 0.0972, 2.2560976, 0.0972, -0.0791016, 0.0972, -0.9794922, 0.0972, -0.2841797, 0.0972, -1.2804878, 0.0972, 2.6219513, 0.0972, -0.7317073, 0.0972, 0.105957, 0.0972, -0.9863281, 0.0972, -0.2387695, 0.0972, -14.9390249, 0.0972, -1.402439, 0.0972, 4.6951222
0.0999, -0.1494141, 0.0999, -0.9829102, 0.0999, -0.2148438, 0.0999, -20.8536587, 0.0999, 9.1463413, 0.0999, -0.9756098, 0.0999, 0.0092773, 0.0999, -0.9848633, 0.0999, -0.2963867, 0.0999, 10.6097565, 0.0999, 7.6219516, 0.0999, 2.195122, 0.0999, -0.0825195, 0.0999, -0.9770508, 0.0999, -0.2851562, 0.0999, -1.2195122, 0.0999, 2.4390244, 0.0999, -0.9146342, 0.0999, 0.1044922, 0.0999, -0.9868164, 0.0999, -0.2402344, 0.0999, -15.2439032, 0.0999, -1.097561, 0.0999, 4.9390244
0.1026, -0.1508789, 0.1026, -0.9819336, 0.1026, -0.2133789, 0.1026, -21.280489, 0.1026, 8.841464, 0.1026, -1.097561, 0.1026, 0.0102539, 0.1026, -0.9794922, 0.1026, -0.2993164, 0.1026, 10.7926836, 0.1026, 8.4756098, 0.1026, 1.8902439, 0.1026, -0.0849609, 0.1026, -0.9770508, 0.1026, -0.2807617, 0.1026, -1.2195122, 0.1026, 1.8902439, 0.1026, -0.7317073, 0.1026, 0.1035156, 0.1026, -0.9912109, 0.1026, -0.2373047, 0.1026, -15.3658543, 0.1026, -0.9146342, 0.1026, 4.8170733
0.1053, -0.1523438, 0.1053, -0.9819336, 0.1053, -0.2211914, 0.1053, -21.8292694, 0.1053, 8.2317076, 0.1053, -1.1585366, 0.1053, 0.012207, 0.1053, -0.9799805, 0.1053, -0.3012695, 0.1053, 10.9146347, 0.1053, 8.719512, 0.1053, 1.9512196, 0.1053, -0.0864258, 0.1053, -0.9785156, 0.1053, -0.2832031, 0.1053, -1.2804878, 0.1053, 1.402439, 0.1053, -0.6097561, 0.1053, 0.1064453, 0.1053, -0.9912109, 0.1053, -0.234375, 0.1053, -15.7317076, 0.1053, -1.4634147, 0.1053, 5
0.108, -0.1538086, 0.108, -0.9814453, 0.108, -0.2236328, 0.108, -22.0121956, 0.108, 7.8658538, 0.108, -1.097561, 0.108, 0.0107422, 0.108, -0.9790039, 0.108, -0.3076172, 0.108, 10.7317076, 0.108, 9.9390249, 0.108, 1.9512196, 0.108, -0.0869141, 0.108, -0.9765625, 0.108, -0.2797852, 0.108, -1.1585366, 0.108, 0.9146342, 0.108, -0.6707317, 0.108, 0.1030273, 0.108, -0.9916992, 0.108, -0.2304688, 0.108, -15.7926836, 0.108, -1.5853659, 0.108, 4.7560978
0.1107, -0.1474609, 0.1107, -0.9829102, 0.1107, -0.2255859, 0.1107, -22.8048782, 0.1107, 8.1097565, 0.1107, -1.097561, 0.1107, 0.0107422, 0.1107, -0.9814453, 0.1107, -0.3105469, 0.1107, 10.6097565, 0.1107, 10.4268293, 0.1107, 1.6463414, 0.1107, -0.0825195, 0.1107, -0.9726562, 0.1107, -0.2807617, 0.1107, -1.1585366, 0.1107, 0.9756098, 0.1107, -0.7317073, 0.1107, 0.1020508, 0.1107, -0.9907227, 0.1107, -0.2294922, 0.1107, -15.4878054, 0.1107, -2.3780489, 0.1107, 4.5121951
0.1134, -0.1464844, 0.1134, -0.9838867, 0.1134, -0.2226562, 0.1134, -22.9878063, 0.1134, 8.5365858, 0.1134, -1.1585366, 0.1134, 0.0024414, 0.1134, -0.9838867, 0.1134, -0.3105469, 0.1134, 10.4268293, 0.1134, 11.5853662, 0.1134, 1.5243902, 0.1134, -0.0830078, 0.1134, -0.9741211, 0.1134, -0.2788086, 0.1134, -1.0365853, 0.1134, 0.7317073, 0.1134, -0.7926829, 0.1134, 0.1049805, 0.1134, -0.9926758, 0.1134, -0.2319336, 0.1134, -15, 0.1134, -3.2317073, 0.1134, 4.5121951
0.1161, -0.1455078, 0.1161, -0.9882812, 0.1161, -0.2216797, 0.1161, -22.8048782, 0.1161, 8.780488, 0.1161, -1.2804878, 0.1161, 0.0014648, 0.1161, -0.9848633, 0.1161, -0.3115234, 0.1161, 10.3048782, 0.1161, 12.0731707, 0.1161, 1.5853659, 0.1161, -0.0849609, 0.1161, -0.9711914, 0.1161, -0.2802734, 0.1161, -1.2804878, 0.1161, 0.6097561, 0.1161, -0.7926829, 0.1161, 0.1069336, 0.1161, -0.9907227, 0.1161, -0.2338867, 0.1161, -14.9390249, 0.1161, -3.1097562, 0.1161, 4.3292685
0.1188, -0.1503906, 0.1188, -0.9902344, 0.1188, -0.2138672, 0.1188, -23.1707325, 0.1188, 9.5121956, 0.1188, -1.2195122, 0.1188, -0.0019531, 0.1188, -0.9824219, 0.1188, -0.3168945, 0.1188, 10.3658543, 0.1188, 12.8048782, 0.1188, 1.7682927, 0.1188, -0.0849609, 0.1188, -0.9741211, 0.1188, -0.28125, 0.1188, -1.3414634, 0.1188, 0.2439024, 0.1188, -1.1585366, 0.1188, 0.105957, 0.1188, -0.9921875, 0.1188, -0.2348633, 0.1188, -15.060976, 0.1188, -3.1097562, 0.1188, 4.0853658
0.1215, -0.1533203, 0.1215, -0.9926758, 0.1215, -0.2099609, 0.1215, -23.1097565, 0.1215, 10.4268293, 0.1215, -1.2195122, 0.1215, -0.0014648, 0.1215, -0.9829102, 0.1215, -0.3222656, 0.1215, 10, 0.1215, 13.1097565, 0.1215, 1.7073171, 0.1215, -0.0844727, 0.1215, -0.9760742, 0.1215, -0.2783203, 0.1215, -1.5243902, 0.1215, -0.0609756, 0.1215, -1.402439, 0.1215, 0.1040039, 0.1215, -0.9912109, 0.1215, -0.2358398, 0.1215, -14.9390249, 0.1215, -2.8658538, 0.1215, 4.0243902
0.1242, -0.1484375, 0.1242, -0.9926758, 0.1242, -0.2050781, 0.1242, -22.8658543, 0.1242, 10.9756098, 0.1242, -1.2804878, 0.1242, -0.0063477, 0.1242, -0.9794922, 0.1242, -0.3237305, 0.1242, 9.8170738, 0.1242, 12.7439032, 0.1242, 1.5243902, 0.1242, -0.0849609, 0.1242, -0.9702148, 0.1242, -0.2792969, 0.1242, -1.6463414, 0.1242, -0.0609756, 0.1242, -1.402439, 0.1242, 0.1040039, 0.1242, -0.9926758, 0.1242, -0.2348633, 0.1242, -15.1219511, 0.1242, -2.6829269, 0.1242, 4.0853658
0.1269, -0.1552734, 0.1269, -0.9921875, 0.1269, -0.2026367, 0.1269, -22.3170738, 0.1269, 11.341464, 0.1269, -1.0365853, 0.1269, -0.0078125, 0.1269, -0.9824219, 0.1269, -0.3232422, 0.1269, 9.8780489, 0.1269, 12.8048782, 0.1269, 1.8902439, 0.1269, -0.0820312, 0.1269, -0.9716797, 0.1269, -0.2832031, 0.1269, -1.6463414, 0.1269, -0.8536586, 0.1269, -1.6463414, 0.1269, 0.0976562, 0.1269, -0.987793, 0.1269, -0.2324219, 0.1269, -15.1219511, 0.1269, -2.6219513, 0.1269, 3.6585367
0.1296, -0.1547852, 0.1296, -0.9912109, 0.1296, -0.1972656, 0.1296, -21.8902435, 0.1296, 11.4634151, 0.1296, -1.097561, 0.1296, -0.0126953, 0.1296, -0.9741211, 0.1296, -0.3208008, 0.1296, 10, 0.1296, 12.0121956, 0.1296, 1.8902439, 0.1296, -0.0810547, 0.1296, -0.9736328, 0.1296, -0.2802734, 0.1296, -1.5853659, 0.1296, -1.097561, 0.1296, -1.5853659, 0.1296, 0.097168, 0.1296, -0.9907227, 0.1296, -0.2299805, 0.1296, -15, 0.1296, -2.804878, 0.1296, 3.9634147
0.1323, -0.1616211, 0.1323, -0.9951172, 0.1323, -0.1987305, 0.1323, -21.5853672, 0.1323, 11.341464, 0.1323, -1.0365853, 0.1323, -0.0151367, 0.1323, -0.9799805, 0.1323, -0.3222656, 0.1323, 10, 0.1323, 11.4024391, 0.1323, 2.0121951, 0.1323, -0.0825195, 0.1323, -0.9711914, 0.1323, -0.2797852, 0.1323, -1.7073171, 0.1323, -1.2804878, 0.1323, -1.402439, 0.1323, 0.0961914, 0.1323, -0.9863281, 0.1323, -0.2304688, 0.1323, -15.3048782, 0.1323, -2.9268293, 0.1323, 3.8414636
0.135, -0.1630859, 0.135, -0.9892578, 0.135, -0.1977539, 0.135, -21.4024391, 0.135, 11.4634151, 0.135, -0.8536586, 0.135, -0.0175781, 0.135, -0.9765625, 0.135, -0.3261719, 0.135, 9.6951218, 0.135, 10.1829271, 0.135, 2.0731707, 0.135, -0.078125, 0.135, -0.9741211, 0.135, -0.2783203, 0.135, -1.4634147, 0.135, -1.402439, 0.135, -1.2804878, 0.135, 0.0932617, 0.135, -0.9873047, 0.135, -0.2304688, 0.135, -15.3048782, 0.135, -3.6585367, 0.135, 3.9634147
0.1377, -0.1621094, 0.1377, -0.9853516, 0.1377, -0.2036133, 0.1377, -21.2195129, 0.1377, 10.9146347, 0.1377, -0.9146342, 0.1377, -0.0205078, 0.1377, -0.9760742, 0.1377, -0.3251953, 0.1377, 9.3902445, 0.1377, 9.4512196, 0.1377, 2.0121951, 0.1377, -0.078125, 0.1377, -0.9746094, 0.1377, -0.2783203, 0.1377, -1.402439, 0.1377, -1.097561, 0.1377, -1.2804878, 0.1377, 0.0932617, 0.1377, -0.9907227, 0.1377, -0.2348633, 0.1377, -14.9390249, 0.1377, -4.2073174, 0.1377, 3.9634147
0.1404, -0.1660156, 0.1404, -0.9819336, 0.1404, -0.2001953, 0.1404, -21.280489, 0.1404, 10, 0.1404, -1.0365853, 0.1404, -0.0195312, 0.1404, -0.9780273, 0.1404, -0.3203125, 0.1404, 9.3292685, 0.1404, 7.9268293, 0.1404, 2.2560976, 0.1404, -0.0703125, 0.1404, -0.9736328, 0.1404, -0.2763672, 0.1404, -1.4634147, 0.1404, -0.9146342, 0.1404, -1.3414634, 0.1404, 0.0947266, 0.1404, -0.9926758, 0.1404, -0.2348633, 0.1404, -15.4878054, 0.1404, -5.1219511, 0.1404, 3.9634147
0.1431, -0.1630859, 0.1431, -0.9882812, 0.1431, -0.203125, 0.1431, -21.4024391, 0.1431, 8.9634151, 0.1431, -0.9756098, 0.1431, -0.0180664, 0.1431, -0.9755859, 0.1431, -0.3203125, 0.1431, 8.9634151, 0.1431, 7.5609756, 0.1431, 2.3170731, 0.1431, -0.0712891, 0.1431, -0.9746094, 0.1431, -0.277832, 0.1431, -1.2195122, 0.1431, -0.7317073, 0.1431, -1.402439, 0.1431, 0.1005859, 0.1431, -0.9907227, 0.1431, -0.2329102, 0.1431, -15.1829271, 0.1431, -5.3048782, 0.1431, 3.9024391
0.1458, -0.1660156, 0.1458, -0.9882812, 0.1458, -0.2011719, 0.1458, -21.4634151, 0.1458, 7.8658538, 0.1458, -0.9146342, 0.1458, -0.0126953, 0.1458, -0.9785156, 0.1458, -0.3188477, 0.1458, 9.0853662, 0.1458, 6.890244, 0.1458, 2.5609756, 0.1458, -0.0698242, 0.1458, -0.9785156, 0.1458, -0.2719727, 0.1458, -1.2195122, 0.1458, -0.6097561, 0.1458, -1.2804878, 0.1458, 0.1010742, 0.1458, -0.9936523, 0.1458, -0.2363281, 0.1458, -15, 0.1458, -5.4268293, 0.1458, 4.0243902
0.1485, -0.1669922, 0.1485, -0.9897461, 0.1485, -0.1987305, 0.1485, -21.7073174, 0.1485, 6.5853658, 0.1485, -0.9146342, 0.1485, -0.0087891, 0.1485, -0.9819336, 0.1485, -0.3125, 0.1485, 8.9024391, 0.1485, 6.5243902, 0.1485, 2.6829269, 0.1485, -0.0717773, 0.1485, -0.9736328, 0.1485, -0.2719727, 0.1485, -1.4634147, 0.1485, -0.0609756, 0.1485, -0.9756098, 0.1485, 0.1079102, 0.1485, -0.9897461, 0.1485, -0.2353516, 0.1485, -14.8780489, 0.1485, -4.9390244, 0.1485, 3.9024391
0.1512, -0.1621094, 0.1512, -0.9921875, 0.1512, -0.199707, 0.1512, -22.0731716, 0.1512, 5.7317076, 0.1512, -0.8536586, 0.1512, -0.0107422, 0.1512, -0.9819336, 0.1512, -0.3095703, 0.1512, 8.780488, 0.1512, 6.3414636, 0.1512, 2.4390244, 0.1512, -0.0673828, 0.1512, -0.9741211, 0.1512, -0.2675781, 0.1512, -1.7682927, 0.1512, -0.1219512, 0.1512, -1.097561, 0.1512, 0.1064453, 0.1512, -0.9916992, 0.1512, -0.2348633, 0.1512, -14.4512196, 0.1512, -3.8414636, 0.1512, 3.8414636
0.1539, -0.1625977, 0.1539, -0.9916992, 0.1539, -0.2001953, 0.1539, -21.7073174, 0.1539, 4.5731707, 0.1539, -0.7317073, 0.1539, -0.0141602, 0.1539, -0.9829102, 0.1539, -0.3051758, 0.1539, 9.0243902, 0.1539, 6.5853658, 0.1539, 2.804878, 0.1539, -0.0698242, 0.1539, -0.9731445, 0.1539, -0.2705078, 0.1539, -1.8902439, 0.1539, -0.0609756, 0.1539, -0.9756098, 0.1539, 0.1044922, 0.1539, -0.9946289, 0.1539, -0.2324219, 0.1539, -14.3292685, 0.1539, -2.6219513, 0.1539, 4.1463413
0.1566, -0.15625, 0.1566, -0.9951172, 0.1566, -0.1962891, 0.1566, -21.6463413, 0.1566, 4.2682929, 0.1566, -0.8536586, 0.1566, -0.0107422, 0.1566, -0.9853516, 0.1566, -0.3051758, 0.1566, 8.9024391, 0.1566, 6.9512196, 0.1566, 3.0487804, 0.1566, -0.0703125, 0.1566, -0.9736328, 0.1566, -0.2675781, 0.1566, -1.7682927, 0.1566, 0, 0.1566, -1.0365853, 0.1566, 0.1035156, 0.1566, -0.9926758, 0.1566, -0.2363281, 0.1566, -14.4512196, 0.1566, -2.1341465, 0.1566, 4.2682929
0.1593, -0.1518555, 0.1593, -0.9931641, 0.1593, -0.1933594, 0.1593, -21.5853672, 0.1593, 4.3292685, 0.1593, -0.9756098, 0.1593, -0.0087891, 0.1593, -0.9848633, 0.1593, -0.2998047, 0.1593, 9.3292685, 0.1593, 7.3170733, 0.1593, 3.0487804, 0.1593, -0.0708008, 0.1593, -0.9750977, 0.1593, -0.2685547, 0.1593, -2.0731707, 0.1593, 0.3048781, 0.1593, -1.2195122, 0.1593, 0.0986328, 0.1593, -0.987793, 0.1593, -0.2368164, 0.1593, -14.3902445, 0.1593, -1.7073171, 0.1593, 3.9634147
0.162, -0.1523438, 0.162, -0.9960938, 0.162, -0.1904297, 0.162, -20.8536587, 0.162, 4.5121951, 0.162, -0.7317073, 0.162, -0.0087891, 0.162, -0.9868164, 0.162, -0.296875, 0.162, 9.4512196, 0.162, 7.6829271, 0.162, 2.9268293, 0.162, -0.0693359, 0.162, -0.9765625, 0.162, -0.2700195, 0.162, -2.2560976, 0.162, 0.6097561, 0.162, -1.097561, 0.162, 0.0981445, 0.162, -0.9897461, 0.162, -0.2368164, 0.162, -14.5731707, 0.162, -1.7682927, 0.162, 4.1463413
0.1647, -0.152832, 0.1647, -0.9951172, 0.1647, -0.1923828, 0.1647, -20.1219521, 0.1647, 5, 0.1647, -0.7317073, 0.1647, -0.0102539, 0.1647, -0.9912109, 0.1647, -0.2944336, 0.1647, 9.6341467, 0.1647, 8.2317076, 0.1647, 3.1707318, 0.1647, -0.0712891, 0.1647, -0.972168, 0.1647, -0.269043, 0.1647, -2.1341465, 0.1647, 0.7317073, 0.1647, -0.9756098, 0.1647, 0.0913086, 0.1647, -0.9863281, 0.1647, -0.2294922, 0.1647, -15.1219511, 0.1647, -2.0121951, 0.1647, 3.7804878
0.1674, -0.1455078, 0.1674, -0.996582, 0.1674, -0.1923828, 0.1674, -20.060976, 0.1674, 5.8536587, 0.1674, -0.7926829, 0.1674, -0.0107422, 0.1674, -0.9897461, 0.1674, -0.293457, 0.1674, 10, 0.1674, 8.2317076, 0.1674, 3.1707318, 0.1674, -0.0708008, 0.1674, -0.972168, 0.1674, -0.2661133, 0.1674, -2.195122, 0.1674, 0.9756098, 0.1674, -1.1585366, 0.1674, 0.0898438, 0.1674, -0.9897461, 0.1674, -0.2280273, 0.1674, -15.2439032, 0.1674, -2.195122, 0.1674, 3.5975611
0.1701, -0.1484375, 0.1701, -0.9926758, 0.1701, -0.1943359, 0.1701, -19.8170738, 0.1701, 6.9512196, 0.1701, -0.6707317, 0.1701, -0.012207, 0.1701, -0.9897461, 0.1701, -0.2963867, 0.1701, 10.6097565, 0.1701, 8.4756098, 0.1701, 3.0487804, 0.1701, -0.078125, 0.1701, -0.9711914, 0.1701, -0.2651367, 0.1701, -2.4390244, 0.1701, 1.1585366, 0.1701, -1.2195122, 0.1701, 0.0878906, 0.1701, -0.9916992, 0.1701, -0.2241211, 0.1701, -15.060976, 0.1701, -2.1341465, 0.1701, 3.3536587
0.1728, -0.1508789, 0.1728, -0.987793, 0.1728, -0.1977539, 0.1728, -19.8780499, 0.1728, 7.8048782, 0.1728, -0.9146342, 0.1728, -0.0092773, 0.1728, -0.987793, 0.1728, -0.2973633, 0.1728, 10.8536587, 0.1728, 8.3536587, 0.1728, 3.1097562, 0.1728, -0.0756836, 0.1728, -0.9731445, 0.1728, -0.2680664, 0.1728, -2.3170731, 0.1728, 0.4878049, 0.1728, -1.402439, 0.1728, 0.078125, 0.1728, -0.996582, 0.1728, -0.2226562, 0.1728, -15, 0.1728, -2.1341465, 0.1728, 3.3536587
0.1755, -0.1499023, 0.1755, -0.9887695, 0.1755, -0.1992188, 0.1755, -19.5731716, 0.1755, 8.719512, 0.1755, -0.6707317, 0.1755, -0.0087891, 0.1755, -0.9829102, 0.1755, -0.2919922, 0.1755, 11.4024391, 0.1755, 7.8048782, 0.1755, 3.0487804, 0.1755, -0.0737305, 0.1755, -0.9702148, 0.1755, -0.2700195, 0.1755, -2.3780489, 0.1755, 0.1219512, 0.1755, -1.402439, 0.1755, 0.0737305, 0.1755, -0.9975586, 0.1755, -0.2226562, 0.1755, -14.5121956, 0.1755, -1.7073171, 0.1755, 2.8658538
0.1782, -0.1557617, 0.1782, -0.9887695, 0.1782, -0.2070312, 0.1782, -19.6341476, 0.1782, 9.3902445, 0.1782, -0.3658537, 0.1782, -0.0073242, 0.1782, -0.9838867, 0.1782, -0.2983398, 0.1782, 11.1585369, 0.1782, 7.8658538, 0.1782, 3.2926829, 0.1782, -0.0771484, 0.1782, -0.9716797, 0.1782, -0.2719727, 0.1782, -2.7439024, 0.1782, -0.2439024, 0.1782, -1.8292683, 0.1782, 0.0732422, 0.1782, -0.9956055, 0.1782, -0.2270508, 0.1782, -14.3902445, 0.1782, -1.8902439, 0.1782, 2.9878049
0.1809, -0.1547852, 0.1809, -0.9921875, 0.1809, -0.2119141, 0.1809, -19.7560978, 0.1809, 10.1219511, 0.1809, -0.5487805, 0.1809, -0.0073242, 0.1809, -0.9858398, 0.1809, -0.3041992, 0.1809, 11.5243902, 0.1809, 7.7439027, 0.1809, 3.4146342, 0.1809, -0.0839844, 0.1809, -0.9755859, 0.1809, -0.2700195, 0.1809, -2.6829269, 0.1809, -0.6097561, 0.1809, -1.7073171, 0.1809, 0.0688477, 0.1809, -0.9907227, 0.1809, -0.2290039, 0.1809, -14.0243902, 0.1809, -3.0487804, 0.1809, 3.0487804
0.1836, -0.1572266, 0.1836, -0.9902344, 0.1836, -0.2148438, 0.1836, -20, 0.1836, 10, 0.1836, -0.5487805, 0.1836, -0.0048828, 0.1836, -0.9814453, 0.1836, -0.3085938, 0.1836, 11.4024391, 0.1836, 7.5, 0.1836, 3.3536587, 0.1836, -0.0825195, 0.1836, -0.9775391, 0.1836, -0.2734375, 0.1836, -3.1707318, 0.1836, -0.4878049, 0.1836, -1.2804878, 0.1836, 0.0751953, 0.1836, -0.9916992, 0.1836, -0.2275391, 0.1836, -13.9024391, 0.1836, -3.7804878, 0.1836, 3.3536587
0.1863, -0.1591797, 0.1863, -0.987793, 0.1863, -0.2163086, 0.1863, -20.3658543, 0.1863, 9.7560978, 0.1863, -0.1829268, 0.1863, -0.0112305, 0.1863, -0.9833984, 0.1863, -0.3125, 0.1863, 10.9756098, 0.1863, 7.3170733, 0.1863, 3.6585367, 0.1863, -0.0869141, 0.1863, -0.9746094, 0.1863, -0.2739258, 0.1863, -3.1097562, 0.1863, -0.6707317, 0.1863, -1.402439, 0.1863, 0.0776367, 0.1863, -0.9921875, 0.1863, -0.2329102, 0.1863, -14.2073174, 0.1863, -5.609756, 0.1863, 3.2926829
0.189, -0.1625977, 0.189, -0.9887695, 0.189, -0.2163086, 0.189, -20.3658543, 0.189, 9.2073174, 0.189, -0.1219512, 0.189, -0.012207, 0.189, -0.980957, 0.189, -0.3139648, 0.189, 10.9146347, 0.189, 6.7682929, 0.189, 3.4756098, 0.189, -0.0888672, 0.189, -0.9775391, 0.189, -0.2768555, 0.189, -3.3536587, 0.189, -1.097561, 0.189, -1.1585366, 0.189, 0.0834961, 0.189, -0.9902344, 0.189, -0.2329102, 0.189, -14.3902445, 0.189, -7.2560978, 0.189, 3.2926829
0.1917, -0.1640625, 0.1917, -0.9824219, 0.1917, -0.2143555, 0.1917, -20.5487804, 0.1917, 8.4756098, 0.1917, 0.1219512, 0.1917, -0.0087891, 0.1917, -0.9819336, 0.1917, -0.3134766, 0.1917, 10.6097565, 0.1917, 6.5853658, 0.1917, 3.6585367, 0.1917, -0.0864258, 0.1917, -0.9765625, 0.1917, -0.2773438, 0.1917, -3.2317073, 0.1917, -1.5243902, 0.1917, -1.1585366, 0.1917, 0.0898438, 0.1917, -0.9882812, 0.1917, -0.2373047, 0.1917, -14.1463413, 0.1917, -7.8048782, 0.1917, 3.2317073
0.1944, -0.1621094, 0.1944, -0.9858398, 0.1944, -0.2099609, 0.1944, -21.1585369, 0.1944, 7.8048782, 0.1944, -0.0609756, 0.1944, -0.0087891, 0.1944, -0.9804688, 0.1944, -0.3154297, 0.1944, 10.3658543, 0.1944, 6.2195125, 0.1944, 3.8414636, 0.1944, -0.0859375, 0.1944, -0.9804688, 0.1944, -0.2763672, 0.1944, -3.1707318, 0.1944, -2.2560976, 0.1944, -1.1585366, 0.1944, 0.1010742, 0.1944, -0.9897461, 0.1944, -0.2402344, 0.1944, -14.2682934, 0.1944, -8.780488, 0.1944, 3.1707318
0.1971, -0.1640625, 0.1971, -0.987793, 0.1971, -0.2084961, 0.1971, -21.6463413, 0.1971, 6.890244, 0.1971, 0.0609756, 0.1971, -0.0058594, 0.1971, -0.9799805, 0.1971, -0.3105469, 0.1971, 10.3048782, 0.1971, 6.0975609, 0.1971, 4.0243902, 0.1971, -0.0874023, 0.1971, -0.9760742, 0.1971, -0.2797852, 0.1971, -2.8658538, 0.1971, -2.6829269, 0.1971, -1.2195122, 0.1971, 0.0996094, 0.1971, -0.9902344, 0.1971, -0.2382812, 0.1971, -14.2682934, 0.1971, -8.719512, 0.1971, 2.9268293
0.1998, -0.1645508, 0.1998, -0.9858398, 0.1998, -0.2075195, 0.1998, -21.8292694, 0.1998, 6.0975609, 0.1998, 0.2439024, 0.1998, -0.0068359, 0.1998, -0.9853516, 0.1998, -0.3120117, 0.1998, 9.8170738, 0.1998, 6.2195125, 0.1998, 3.9634147, 0.1998, -0.0869141, 0.1998, -0.9746094, 0.1998, -0.2802734, 0.1998, -2.8658538, 0.1998, -3.1097562, 0.1998, -1.3414634, 0.1998, 0.1049805, 0.1998, -0.9868164, 0.1998, -0.2333984, 0.1998, -14.5121956, 0.1998, -8.0487804, 0.1998, 2.7439024
0.2025, -0.1591797, 0.2025, -0.987793, 0.2025, -0.2026367, 0.2025, -21.5243912, 0.2025, 5.3048782, 0.2025, 0.3048781, 0.2025, -0.0083008, 0.2025, -0.9819336, 0.2025, -0.3120117, 0.2025, 9.8170738, 0.2025, 5.9146342, 0.2025, 4.2073174, 0.2025, -0.0854492, 0.2025, -0.9741211, 0.2025, -0.2841797, 0.2025, -2.9268293, 0.2025, -3.7804878, 0.2025, -1.402439, 0.2025, 0.1049805, 0.2025, -0.9882812, 0.2025, -0.2353516, 0.2025, -14.5731707, 0.2025, -7.4390244, 0.2025, 2.4390244
0.2052, -0.1547852, 0.2052, -0.9873047, 0.2052, -0.2036133, 0.2052, -21.5853672, 0.2052, 4.9390244, 0.2052, 0.3048781, 0.2052, -0.0083008, 0.2052, -0.9804688, 0.2052, -0.3149414, 0.2052, 9.9390249, 0.2052, 5.9756098, 0.2052, 4.0243902, 0.2052, -0.0878906, 0.2052, -0.972168, 0.2052, -0.2851562, 0.2052, -2.9268293, 0.2052, -3.8414636, 0.2052, -1.5853659, 0.2052, 0.1162109, 0.2052, -0.9921875, 0.2052, -0.2358398, 0.2052, -14.5731707, 0.2052, -6.7682929, 0.2052, 2.4390244
0.2079, -0.1542969, 0.2079, -0.9863281, 0.2079, -0.2006836, 0.2079, -21.5243912, 0.2079, 4.6341462, 0.2079, 0.1829268, 0.2079, -0.0068359, 0.2079, -0.9804688, 0.2079, -0.3129883, 0.2079, 9.7560978, 0.2079, 5.670732, 0.2079, 3.8414636, 0.2079, -0.0805664, 0.2079, -0.9692383, 0.2079, -0.2871094, 0.2079, -3.0487804, 0.2079, -4.390244, 0.2079, -1.5243902, 0.2079, 0.1123047, 0.2079, -0.9912109, 0.2079, -0.2363281, 0.2079, -14.3292685, 0.2079, -6.0365853, 0.2079, 2.7439024
0.2106, -0.1518555, 0.2106, -0.9897461, 0.2106, -0.2041016, 0.2106, -21.3414631, 0.2106, 4.8780489, 0.2106, 0.1829268, 0.2106, -0.0058594, 0.2106, -0.9819336, 0.2106, -0.3129883, 0.2106, 9.8170738, 0.2106, 5.9146342, 0.2106, 3.9634147, 0.2106, -0.0791016, 0.2106, -0.9711914, 0.2106, -0.2861328, 0.2106, -3.1097562, 0.2106, -4.5731707, 0.2106, -1.5853659, 0.2106, 0.1181641, 0.2106, -0.9897461, 0.2106, -0.2392578, 0.2106, -14.0853662, 0.2106, -5.670732, 0.2106, 2.3780489
0.2133, -0.1499023, 0.2133, -0.9882812, 0.2133, -0.203125, 0.2133, -21.0975609, 0.2133, 5, 0.2133, 0.1829268, 0.2133, -0.003418, 0.2133, -0.9799805, 0.2133, -0.315918, 0.2133, 9.8170738, 0.2133, 5.8536587, 0.2133, 4.0853658, 0.2133, -0.0771484, 0.2133, -0.972168, 0.2133, -0.2841797, 0.2133, -2.9268293, 0.2133, -4.390244, 0.2133, -1.7073171, 0.2133, 0.1157227, 0.2133, -0.9833984, 0.2133, -0.2412109, 0.2133, -14.2073174, 0.2133, -5.3658538, 0.2133, 2.5609756
0.216, -0.1489258, 0.216, -0.9897461, 0.216, -0.2050781, 0.216, -21.0365868, 0.216, 5.2439027, 0.216, 0.1219512, 0.216, -0.0009766, 0.216, -0.9794922, 0.216, -0.3178711, 0.216, 9.8780489, 0.216, 5.9756098, 0.216, 4.1463413, 0.216, -0.0761719, 0.216, -0.972168, 0.216, -0.2792969, 0.216, -2.9878049, 0.216, -4.5121951, 0.216, -1.7073171, 0.216, 0.1137695, 0.216, -0.984375, 0.216, -0.2397461, 0.216, -14.0853662, 0.216, -5.4878049, 0.216, 2.8658538
0.2187, -0.1523438, 0.2187, -0.987793, 0.2187, -0.2070312, 0.2187, -20.6097565, 0.2187, 5.7926831, 0.2187, 0.1219512, 0.2187, -0.003418, 0.2187, -0.9794922, 0.2187, -0.3198242, 0.2187, 9.6341467, 0.2187, 6.0365853, 0.2187, 4.1463413, 0.2187, -0.0737305, 0.2187, -0.9755859, 0.2187, -0.2856445, 0.2187, -2.9268293, 0.2187, -4.2682929, 0.2187, -1.8292683, 0.2187, 0.1157227, 0.2187, -0.9892578, 0.2187, -0.2382812, 0.2187, -14.5121956, 0.2187, -5.670732, 0.2187, 2.6829269
0.2214, -0.1450195, 0.2214, -0.9951172, 0.2214, -0.2036133, 0.2214, -20.4268303, 0.2214, 6.0975609, 0.2214, -0.1219512, 0.2214, -0.0019531, 0.2214, -0.9780273, 0.2214, -0.3198242, 0.2214, 9.2682924, 0.2214, 5.9756098, 0.2214, 4.0243902, 0.2214, -0.0678711, 0.2214, -0.9790039, 0.2214, -0.2822266, 0.2214, -2.804878, 0.2214, -4.2682929, 0.2214, -1.9512196, 0.2214, 0.112793, 0.2214, -0.9916992, 0.2214, -0.2358398, 0.2214, -14.2073174, 0.2214, -5.670732, 0.2214, 2.9878049
0.2241, -0.1411133, 0.2241, -0.9897461, 0.2241, -0.2036133, 0.2241, -20.6097565, 0.2241, 6.3414636, 0.2241, 0, 0.2241, -0.0029297, 0.2241, -0.9794922, 0.2241, -0.3139648, 0.2241, 9.3902445, 0.2241, 5.609756, 0.2241, 3.6585367, 0.2241, -0.0688477, 0.2241, -0.9804688, 0.2241, -0.2807617, 0.2241, -2.804878, 0.2241, -3.8414636, 0.2241, -1.8902439, 0.2241, 0.1210938, 0.2241, -0.9838867, 0.2241, -0.2329102, 0.2241, -14.3902445, 0.2241, -5.1219511, 0.2241, 3.1707318
0.2268, -0.1411133, 0.2268, -0.9907227, 0.2268, -0.2021484, 0.2268, -20.8536587, 0.2268, 6.7682929, 0.2268, -0.0609756, 0.2268, 0, 0.2268, -0.9785156, 0.2268, -0.315918, 0.2268, 9.1463413, 0.2268, 5.4878049, 0.2268, 3.6585367, 0.2268, -0.065918, 0.2268, -0.9785156, 0.2268, -0.2832031, 0.2268, -2.804878, 0.2268, -3.7195122, 0.2268, -1.8292683, 0.2268, 0.1235352, 0.2268, -0.9863281, 0.2268, -0.2329102, 0.2268, -14.2682934, 0.2268, -4.3292685, 0.2268, 2.804878
0.2295, -0.1411133, 0.2295, -0.9921875, 0.2295, -0.1972656, 0.2295, -20.5487804, 0.2295, 6.7682929, 0.2295, -0.3658537, 0.2295, 0.0004883, 0.2295, -0.9804688, 0.2295, -0.3129883, 0.2295, 8.841464, 0.2295, 5.7926831, 0.2295, 3.6585367, 0.2295, -0.0668945, 0.2295, -0.9760742, 0.2295, -0.2827148, 0.2295, -2.804878, 0.2295, -3.4756098, 0.2295, -1.2804878, 0.2295, 0.128418, 0.2295, -0.9897461, 0.2295, -0.2329102, 0.2295, -14.1463413, 0.2295, -3.3536587, 0.2295, 2.9878049
0.2322, -0.1411133, 0.2322, -0.987793, 0.2322, -0.1953125, 0.2322, -20.4268303, 0.2322, 6.6463418, 0.2322, -0.1829268, 0.2322, -0.0014648, 0.2322, -0.984375, 0.2322, -0.3115234, 0.2322, 8.9634151, 0.2322, 5.5487804, 0.2322, 3.4146342, 0.2322, -0.0639648, 0.2322, -0.9726562, 0.2322, -0.2802734, 0.2322, -2.804878, 0.2322, -3.1097562, 0.2322, -1.3414634, 0.2322, 0.1254883, 0.2322, -0.987793, 0.2322, -0.2324219, 0.2322, -14.2073174, 0.2322, -2.7439024, 0.2322, 3.0487804
0.2349, -0.1386719, 0.2349, -0.9916992, 0.2349, -0.1958008, 0.2349, -20.5487804, 0.2349, 6.7682929, 0.2349, -0.3658537, 0.2349, 0, 0.2349, -0.9833984, 0.2349, -0.3061523, 0.2349, 9.4512196, 0.2349, 5.4878049, 0.2349, 3.6585367, 0.2349, -0.0629883, 0.2349, -0.9731445, 0.2349, -0.2822266, 0.2349, -2.7439024, 0.2349, -2.804878, 0.2349, -1.402439, 0.2349, 0.1201172, 0.2349, -0.987793, 0.2349, -0.2333984, 0.2349, -14.3292685, 0.2349, -2.0731707, 0.2349, 2.9878049
0.2376, -0.1411133, 0.2376, -0.9916992, 0.2376, -0.1943359, 0.2376, -20, 0.2376, 6.5243902, 0.2376, -0.2439024, 0.2376, 0.0014648, 0.2376, -0.9848633, 0.2376, -0.3027344, 0.2376, 9.4512196, 0.2376, 5.2439027, 0.2376, 3.8414636, 0.2376, -0.0600586, 0.2376, -0.9716797, 0.2376, -0.28125, 0.2376, -2.8658538, 0.2376, -2.3780489, 0.2376, -1.7073171, 0.2376, 0.1137695, 0.2376, -0.9882812, 0.2376, -0.2290039, 0.2376, -14.2682934, 0.2376, -1.8902439, 0.2376, 2.804878
0.2403, -0.1435547, 0.2403, -0.9936523, 0.2403, -0.1948242, 0.2403, -19.8780499, 0.2403, 6.3414636, 0.2403, -0.3048781, 0.2403, 0.0029297, 0.2403, -0.9848633, 0.2403, -0.296875, 0.2403, 9.3902445, 0.2403, 5.0609756, 0.2403, 3.5975611, 0.2403, -0.0581055, 0.2403, -0.9697266, 0.2403, -0.2822266, 0.2403, -2.8658538, 0.2403, -1.402439, 0.2403, -1.402439, 0.2403, 0.1162109, 0.2403, -0.9892578, 0.2403, -0.2270508, 0.2403, -14.6341467, 0.2403, -1.7073171, 0.2403, 2.7439024
0.243, -0.1401367, 0.243, -0.9912109, 0.243, -0.1982422, 0.243, -19.8170738, 0.243, 6.280488, 0.243, -0.4268293, 0.243, 0.0019531, 0.243, -0.9848633, 0.243, -0.2949219, 0.243, 9.6341467, 0.243, 4.8170733, 0.243, 3.4146342, 0.243, -0.0581055, 0.243, -0.9682617, 0.243, -0.2792969, 0.243, -2.9878049, 0.243, -1.1585366, 0.243, -1.5853659, 0.243, 0.1083984, 0.243, -0.9912109, 0.243, -0.2246094, 0.243, -14.6951227, 0.243, -1.402439, 0.243, 2.6829269
0.2457, -0.1401367, 0.2457, -0.9902344, 0.2457, -0.2045898, 0.2457, -20.060976, 0.2457, 6.2195125, 0.2457, -0.4268293, 0.2457, 0, 0.2457, -0.9858398, 0.2457, -0.2915039, 0.2457, 10.1219511, 0.2457, 5.4878049, 0.2457, 3.6585367, 0.2457, -0.0571289, 0.2457, -0.9711914, 0.2457, -0.2807617, 0.2457, -2.9878049, 0.2457, -0.1219512, 0.2457, -1.5853659, 0.2457, 0.1020508, 0.2457, -0.9931641, 0.2457, -0.2231445, 0.2457, -14.5121956, 0.2457, -1.2804878, 0.2457, 2.5609756
0.2484, -0.1401367, 0.2484, -0.9887695, 0.2484, -0.2070312, 0.2484, -20, 0.2484, 6.2195125, 0.2484, -0.5487805, 0.2484, 0.0083008, 0.2484, -0.9873047, 0.2484, -0.2924805, 0.2484, 10, 0.2484, 5.1829271, 0.2484, 3.9634147, 0.2484, -0.0654297, 0.2484, -0.9746094, 0.2484, -0.2807617, 0.2484, -3.2926829, 0.2484, 0.7926829, 0.2484, -1.402439, 0.2484, 0.0986328, 0.2484, -0.9946289, 0.2484, -0.2265625, 0.2484, -14.6341467, 0.2484, -1.402439, 0.2484, 2.6219513
0.2511, -0.1381836, 0.2511, -0.9902344, 0.2511, -0.2075195, 0.2511, -20.060976, 0.2511, 6.5243902, 0.2511, -0.5487805, 0.2511, 0.0063477, 0.2511, -0.9853516, 0.2511, -0.2895508, 0.2511, 10.4268293, 0.2511, 5.5487804, 0.2511, 3.7195122, 0.2511, -0.065918, 0.2511, -0.9770508, 0.2511, -0.2792969, 0.2511, -3.0487804, 0.2511, 1.2804878, 0.2511, -1.2804878, 0.2511, 0.0917969, 0.2511, -0.9956055, 0.2511, -0.2250977, 0.2511, -14.1463413, 0.2511, -1.5853659, 0.2511, 2.804878
0.2538, -0.1357422, 0.2538, -0.9863281, 0.2538, -0.215332, 0.2538, -20.4268303, 0.2538, 7.1951222, 0.2538, -0.5487805, 0.2538, 0.0107422, 0.2538, -0.9853516, 0.2538, -0.2963867, 0.2538, 10.5487804, 0.2538, 5.8536587, 0.2538, 3.4146342, 0.2538, -0.0742188, 0.2538, -0.9736328, 0.2538, -0.28125, 0.2538, -2.9878049, 0.2538, 1.5853659, 0.2538, -1.402439, 0.2538, 0.0932617, 0.2538, -0.9941406, 0.2538, -0.2236328, 0.2538, -14.0243902, 0.2538, -1.8292683, 0.2538, 2.6219513
0.2565, -0.1318359, 0.2565, -0.9868164, 0.2565, -0.2124023, 0.2565, -20.4268303, 0.2565, 7.6219516, 0.2565, -0.4268293, 0.2565, 0.0097656, 0.2565, -0.9858398, 0.2565, -0.296875, 0.2565, 10.6707315, 0.2565, 7.0121951, 0.2565, 3.4146342, 0.2565, -0.078125, 0.2565, -0.9755859, 0.2565, -0.284668, 0.2565, -3.0487804, 0.2565, 1.402439, 0.2565, -1.5853659, 0.2565, 0.090332, 0.2565, -0.9936523, 0.2565, -0.2260742, 0.2565, -14.1463413, 0.2565, -2.2560976, 0.2565, 2.9268293
0.2592, -0.1367188, 0.2592, -0.9887695, 0.2592, -0.2143555, 0.2592, -20.6707325, 0.2592, 8.1707315, 0.2592, -0.4268293, 0.2592, 0.0073242, 0.2592, -0.9853516, 0.2592, -0.3041992, 0.2592, 10.5487804, 0.2592, 7.3170733, 0.2592, 3.4146342, 0.2592, -0.0825195, 0.2592, -0.9770508, 0.2592, -0.2836914, 0.2592, -3.1097562, 0.2592, 0.7926829, 0.2592, -1.0365853, 0.2592, 0.0913086, 0.2592, -0.9931641, 0.2592, -0.2192383, 0.2592, -13.9634151, 0.2592, -2.3170731, 0.2592, 3.1707318
0.2619, -0.140625, 0.2619, -0.9912109, 0.2619, -0.2119141, 0.2619, -20.7317085, 0.2619, 8.780488, 0.2619, -0.3048781, 0.2619, 0.0063477, 0.2619, -0.9882812, 0.2619, -0.3061523, 0.2619, 10.9756098, 0.2619, 8.2926826, 0.2619, 3.5975611, 0.2619, -0.0888672, 0.2619, -0.9746094, 0.2619, -0.2827148, 0.2619, -2.804878, 0.2619, 0.4878049, 0.2619, -1.1585366, 0.2619, 0.09375, 0.2619, -0.9946289, 0.2619, -0.2216797, 0.2619, -13.4146347, 0.2619, -2.3170731, 0.2619, 2.9268293
0.2646, -0.1401367, 0.2646, -0.9916992, 0.2646, -0.2089844, 0.2646, -20.9756107, 0.2646, 9.2073174, 0.2646, -0.2439024, 0.2646, 0.0083008, 0.2646, -0.9814453, 0.2646, -0.3051758, 0.2646, 10.9146347, 0.2646, 8.780488, 0.2646, 3.5365853, 0.2646, -0.0893555, 0.2646, -0.972168, 0.2646, -0.2822266, 0.2646, -2.9268293, 0.2646, -0.1829268, 0.2646, -1.2195122, 0.2646, 0.0917969, 0.2646, -0.9951172, 0.2646, -0.2250977, 0.2646, -13.0487804, 0.2646, -2.5609756, 0.2646, 2.9878049
0.2673, -0.1445312, 0.2673, -0.9887695, 0.2673, -0.2094727, 0.2673, -20.4268303, 0.2673, 9.3292685, 0.2673, -0.4878049, 0.2673, 0.0053711, 0.2673, -0.9838867, 0.2673, -0.3081055, 0.2673, 11.0975609, 0.2673, 9.6341467, 0.2673, 3.4756098, 0.2673, -0.0917969, 0.2673, -0.9726562, 0.2673, -0.2797852, 0.2673, -3.1097562, 0.2673, -0.9146342, 0.2673, -1.3414634, 0.2673, 0.0888672, 0.2673, -0.9995117, 0.2673, -0.2270508, 0.2673, -13.1707315, 0.2673, -3.0487804, 0.2673, 3.0487804
0.27, -0.1459961, 0.27, -0.9848633, 0.27, -0.2045898, 0.27, -20.6097565, 0.27, 9.2682924, 0.27, -0.3048781, 0.27, -0.0004883, 0.27, -0.9799805, 0.27, -0.315918, 0.27, 10.9756098, 0.27, 9.7560978, 0.27, 3.5365853, 0.27, -0.0952148, 0.27, -0.9711914, 0.27, -0.2817383, 0.27, -2.9268293, 0.27, -1.3414634, 0.27, -1.2195122, 0.27, 0.0976562, 0.27, -0.9921875, 0.27, -0.2338867, 0.27, -12.8658543, 0.27, -4.390244, 0.27, 3.3536587
0.2727, -0.1455078, 0.2727, -0.9804688, 0.2727, -0.206543, 0.2727, -20.7317085, 0.2727, 9.7560978, 0.2727, -0.1829268, 0.2727, 0, 0.2727, -0.9814453, 0.2727, -0.3178711, 0.2727, 10.9756098, 0.2727, 9.6951218, 0.2727, 3.4756098, 0.2727, -0.0922852, 0.2727, -0.96875, 0.2727, -0.28125, 0.2727, -2.804878, 0.2727, -1.5243902, 0.2727, -1.2195122, 0.2727, 0.097168, 0.2727, -0.9912109, 0.2727, -0.237793, 0.2727, -13.1097565, 0.2727, -5.3658538, 0.2727, 3.2317073
0.2754, -0.1484375, 0.2754, -0.9887695, 0.2754, -0.2050781, 0.2754, -20.7317085, 0.2754, 9.3292685, 0.2754, -0.3048781, 0.2754, -0.0024414, 0.2754, -0.9790039, 0.2754, -0.3183594, 0.2754, 10.3658543, 0.2754, 9.4512196, 0.2754, 3.5365853, 0.2754, -0.0922852, 0.2754, -0.9731445, 0.2754, -0.2841797, 0.2754, -3.0487804, 0.2754, -2.0121951, 0.2754, -1.4634147, 0.2754, 0.1044922, 0.2754, -0.9873047, 0.2754, -0.2412109, 0.2754, -13.1707315, 0.2754, -6.8292685, 0.2754, 3.0487804
0.2781, -0.1508789, 0.2781, -0.9868164, 0.2781, -0.2080078, 0.2781, -20.7926826, 0.2781, 9.0853662, 0.2781, -0.2439024, 0.2781, -0.0053711, 0.2781, -0.9804688, 0.2781, -0.3212891, 0.2781, 10.3658543, 0.2781, 9.0243902, 0.2781, 3.4756098, 0.2781, -0.0908203, 0.2781, -0.9711914, 0.2781, -0.2861328, 0.2781, -2.8658538, 0.2781, -2.6829269, 0.2781, -1.402439, 0.2781, 0.1040039, 0.2781, -0.9858398, 0.2781, -0.2446289, 0.2781, -13.4146347, 0.2781, -7.5609756, 0.2781, 2.8658538
0.2808, -0.152832, 0.2808, -0.987793, 0.2808, -0.2084961, 0.2808, -20.7317085, 0.2808, 8.719512, 0.2808, 0, 0.2808, -0.0063477, 0.2808, -0.9790039, 0.2808, -0.3193359, 0.2808, 10, 0.2808, 8.3536587, 0.2808, 3.6585367, 0.2808, -0.0893555, 0.2808, -0.9755859, 0.2808, -0.2885742, 0.2808, -3.2926829, 0.2808, -3.5975611, 0.2808, -1.5243902, 0.2808, 0.1137695, 0.2808, -0.9819336, 0.2808, -0.2475586, 0.2808, -13.6585369, 0.2808, -7.8658538, 0.2808, 2.804878
0.2835, -0.1523438, 0.2835, -0.9892578, 0.2835, -0.2084961, 0.2835, -20.7926826, 0.2835, 8.4756098, 0.2835, -0.1219512, 0.2835, -0.0053711, 0.2835, -0.9785156, 0.2835, -0.3198242, 0.2835, 9.6951218, 0.2835, 7.9268293, 0.2835, 3.4146342, 0.2835, -0.0888672, 0.2835, -0.9746094, 0.2835, -0.2861328, 0.2835, -3.3536587, 0.2835, -3.9024391, 0.2835, -1.2804878, 0.2835, 0.1162109, 0.2835, -0.984375, 0.2835, -0.2446289, 0.2835, -13.9634151, 0.2835, -7.7439027, 0.2835, 2.7439024
0.2862, -0.1518555, 0.2862, -0.9853516, 0.2862, -0.2075195, 0.2862, -21.0365868, 0.2862, 7.9878049, 0.2862, -0.2439024, 0.2862, -0.0048828, 0.2862, -0.9838867, 0.2862, -0.3178711, 0.2862, 9.2073174, 0.2862, 7.1341467, 0.2862, 3.6585367, 0.2862, -0.0854492, 0.2862, -0.9746094, 0.2862, -0.2875977, 0.2862, -2.8658538, 0.2862, -4.2682929, 0.2862, -1.6463414, 0.2862, 0.1201172, 0.2862, -0.9848633, 0.2862, -0.2451172, 0.2862, -14.0853662, 0.2862, -6.9512196, 0.2862, 2.8658538
0.2889, -0.1552734, 0.2889, -0.9887695, 0.2889, -0.2070312, 0.2889, -20.8536587, 0.2889, 7.7439027, 0.2889, -0.6097561, 0.2889, -0.0087891, 0.2889, -0.9804688, 0.2889, -0.3178711, 0.2889, 9.0853662, 0.2889, 7.0121951, 0.2889, 3.5975611, 0.2889, -0.0825195, 0.2889, -0.9770508, 0.2889, -0.2861328, 0.2889, -2.9878049, 0.2889, -4.390244, 0.2889, -1.8902439, 0.2889, 0.1264648, 0.2889, -0.987793, 0.2889, -0.2426758, 0.2889, -14.1463413, 0.2889, -6.2195125, 0.2889, 3.0487804
0.2916, -0.1547852, 0.2916, -0.9936523, 0.2916, -0.2055664, 0.2916, -20.5487804, 0.2916, 7.6829271, 0.2916, -0.5487805, 0.2916, -0.0063477, 0.2916, -0.984375, 0.2916, -0.3129883, 0.2916, 9.2682924, 0.2916, 5.9756098, 0.2916, 3.5975611, 0.2916, -0.0820312, 0.2916, -0.9770508, 0.2916, -0.2817383, 0.2916, -2.9268293, 0.2916, -4.2682929, 0.2916, -1.6463414, 0.2916, 0.1240234, 0.2916, -0.9868164, 0.2916, -0.2397461, 0.2916, -14.9390249, 0.2916, -5.2439027, 0.2916, 2.8658538
0.2943, -0.1547852, 0.2943, -0.9926758, 0.2943, -0.2001953, 0.2943, -20.4268303, 0.2943, 7.3780489, 0.2943, -0.4878049, 0.2943, -0.0092773, 0.2943, -0.9814453, 0.2943, -0.3115234, 0.2943, 9.2682924, 0.2943, 5.9756098, 0.2943, 3.4756098, 0.2943, -0.0761719, 0.2943, -0.9750977, 0.2943, -0.2827148, 0.2943, -2.6219513, 0.2943, -4.0853658, 0.2943, -1.7682927, 0.2943, 0.1206055, 0.2943, -0.9892578, 0.2943, -0.2358398, 0.2943, -14.8170738, 0.2943, -4.7560978, 0.2943, 3.0487804
0.297, -0.1523438, 0.297, -0.9912109, 0.297, -0.1987305, 0.297, -20.4268303, 0.297, 7.1951222, 0.297, -0.3048781, 0.297, -0.0083008, 0.297, -0.984375, 0.297, -0.3076172, 0.297, 9.5731707, 0.297, 5.7317076, 0.297, 3.5975611, 0.297, -0.074707, 0.297, -0.9711914, 0.297, -0.2817383, 0.297, -2.6829269, 0.297, -3.9024391, 0.297, -1.8902439, 0.297, 0.1206055, 0.297, -0.9936523, 0.297, -0.2338867, 0.297, -14.5121956, 0.297, -4.1463413, 0.297, 2.804878
0.2997, -0.1523438, 0.2997, -0.9902344, 0.2997, -0.1967773, 0.2997, -20.4878044, 0.2997, 6.7073174, 0.2997, -0.5487805, 0.2997, -0.0053711, 0.2997, -0.9853516, 0.2997, -0.3076172, 0.2997, 9.5731707, 0.2997, 5.4878049, 0.2997, 3.7195122, 0.2997, -0.0644531, 0.2997, -0.9726562, 0.2997, -0.2822266, 0.2997, -2.9268293, 0.2997, -3.2317073, 0.2997, -2.0121951, 0.2997, 0.1269531, 0.2997, -0.9970703, 0.2997, -0.2285156, 0.2997, -14.5121956, 0.2997, -3.7195122, 0.2997, 2.9268293
0.3024, -0.1494141, 0.3024, -0.9916992, 0.3024, -0.1962891, 0.3024, -20.2439022, 0.3024, 6.4634147, 0.3024, -0.4878049, 0.3024, -0.0063477, 0.3024, -0.984375, 0.3024, -0.3051758, 0.3024, 9.9390249, 0.3024, 5.9146342, 0.3024, 4.0243902, 0.3024, -0.0595703, 0.3024, -0.9702148, 0.3024, -0.2817383, 0.3024, -2.7439024, 0.3024, -3.0487804, 0.3024, -2.0121951, 0.3024, 0.1264648, 0.3024, -0.9975586, 0.3024, -0.2294922, 0.3024, -14.0853662, 0.3024, -3.2926829, 0.3024, 2.7439024
0.3051, -0.1469727, 0.3051, -0.9892578, 0.3051, -0.1923828, 0.3051, -20.1829281, 0.3051, 6.280488, 0.3051, -0.5487805, 0.3051, -0.0043945, 0.3051, -0.9824219, 0.3051, -0.3051758, 0.3051, 9.9390249, 0.3051, 5.7926831, 0.3051, 3.6585367, 0.3051, -0.0561523, 0.3051, -0.9716797, 0.3051, -0.2856445, 0.3051, -2.9878049, 0.3051, -2.0121951, 0.3051, -1.8292683, 0.3051, 0.1210938, 0.3051, -0.9926758, 0.3051, -0.2270508, 0.3051, -13.6585369, 0.3051, -3.0487804, 0.3051, 2.804878
0.3078, -0.1503906, 0.3078, -0.9887695, 0.3078, -0.1958008, 0.3078, -19.5731716, 0.3078, 6.0975609, 0.3078, -0.4878049, 0.3078, -0.0014648, 0.3078, -0.9838867, 0.3078, -0.3032227, 0.3078, 10.3048782, 0.3078, 5.7926831, 0.3078, 3.7804878, 0.3078, -0.0522461, 0.3078, -0.9711914, 0.3078, -0.28125, 0.3078, -2.9268293, 0.3078, -1.3414634, 0.3078, -1.5853659, 0.3078, 0.1196289, 0.3078, -0.9916992, 0.3078, -0.2319336, 0.3078, -13.7195129, 0.3078, -2.6219513, 0.3078, 2.9878049
0.3105, -0.1503906, 0.3105, -0.9897461, 0.3105, -0.1967773, 0.3105, -19.8170738, 0.3105, 6.0975609, 0.3105, -0.5487805, 0.3105, -0.0009766, 0.3105, -0.9863281, 0.3105, -0.3032227, 0.3105, 10.2439022, 0.3105, 6.1585369, 0.3105, 3.8414636, 0.3105, -0.0507812, 0.3105, -0.9736328, 0.3105, -0.2827148, 0.3105, -2.8658538, 0.3105, -0.1219512, 0.3105, -1.402439, 0.3105, 0.1176758, 0.3105, -0.9853516, 0.3105, -0.2382812, 0.3105, -13.7195129, 0.3105, -2.5, 0.3105, 3.1097562
0.3132, -0.1459961, 0.3132, -0.9833984, 0.3132, -0.1982422, 0.3132, -19.939024, 0.3132, 5.7926831, 0.3132, -0.3048781, 0.3132, 0.0029297, 0.3132, -0.9829102, 0.3132, -0.3007812, 0.3132, 10.2439022, 0.3132, 5.7926831, 0.3132, 3.7195122, 0.3132, -0.0551758, 0.3132, -0.9736328, 0.3132, -0.2851562, 0.3132, -2.9878049, 0.3132, 0.4878049, 0.3132, -1.6463414, 0.3132, 0.1152344, 0.3132, -0.9848633, 0.3132, -0.2397461, 0.3132, -13.7195129, 0.3132, -2.4390244, 0.3132, 3.0487804
0.3159, -0.1455078, 0.3159, -0.980957, 0.3159, -0.2026367, 0.3159, -19.7560978, 0.3159, 5.9146342, 0.3159, -0.4878049, 0.3159, 0.0058594, 0.3159, -0.980957, 0.3159, -0.3027344, 0.3159, 10.060976, 0.3159, 5.7317076, 0.3159, 3.5365853, 0.3159, -0.059082, 0.3159, -0.9770508, 0.3159, -0.2836914, 0.3159, -2.8658538, 0.3159, 1.7682927, 0.3159, -1.2804878, 0.3159, 0.1088867, 0.3159, -0.9902344, 0.3159, -0.2397461, 0.3159, -14.2682934, 0.3159, -1.7682927, 0.3159, 3.1097562
0.3186, -0.1469727, 0.3186, -0.987793, 0.3186, -0.2104492, 0.3186, -20.2439022, 0.3186, 6.1585369, 0.3186, -0.1219512, 0.3186, 0.0043945, 0.3186, -0.980957, 0.3186, -0.3007812, 0.3186, 10, 0.3186, 6.0975609, 0.3186, 3.6585367, 0.3186, -0.0673828, 0.3186, -0.9755859, 0.3186, -0.2802734, 0.3186, -2.804878, 0.3186, 2.2560976, 0.3186, -0.9146342, 0.3186, 0.1108398, 0.3186, -0.9892578, 0.3186, -0.2324219, 0.3186, -14.6951227, 0.3186, -1.6463414, 0.3186, 3.1097562
0.3213, -0.1459961, 0.3213, -0.9863281, 0.3213, -0.2167969, 0.3213, -20.6707325, 0.3213, 6.1585369, 0.3213, -0.2439024, 0.3213, 0.0063477, 0.3213, -0.9814453, 0.3213, -0.3012695, 0.3213, 10.2439022, 0.3213, 6.0365853, 0.3213, 3.3536587, 0.3213, -0.0708008, 0.3213, -0.9746094, 0.3213, -0.2802734, 0.3213, -3.0487804, 0.3213, 2.2560976, 0.3213, -1.0365853, 0.3213, 0.1064453, 0.3213, -0.9863281, 0.3213, -0.2270508, 0.3213, -15.2439032, 0.3213, -1.3414634, 0.3213, 3.4146342
0.324, -0.1450195, 0.324, -0.980957, 0.324, -0.2197266, 0.324, -21.280489, 0.324, 6.5853658, 0.324, -0.1829268, 0.324, 0.0092773, 0.324, -0.9833984, 0.324, -0.300293, 0.324, 10.3048782, 0.324, 6.3414636, 0.324, 3.5365853, 0.324, -0.0766602, 0.324, -0.9780273, 0.324, -0.284668, 0.324, -2.9878049, 0.324, 2.0731707, 0.324, -1.0365853, 0.324, 0.1079102, 0.324, -0.9887695, 0.324, -0.2182617, 0.324, -15, 0.324, -1.2195122, 0.324, 3.1097562
0.3267, -0.1494141, 0.3267, -0.9853516, 0.3267, -0.2246094, 0.3267, -21.6463413, 0.3267, 6.8292685, 0.3267, -0.1219512, 0.3267, 0.0068359, 0.3267, -0.9838867, 0.3267, -0.3012695, 0.3267, 10.3658543, 0.3267, 6.5243902, 0.3267, 3.2926829, 0.3267, -0.0737305, 0.3267, -0.9760742, 0.3267, -0.2851562, 0.3267, -2.7439024, 0.3267, 1.6463414, 0.3267, -1.2195122, 0.3267, 0.1044922, 0.3267, -0.9907227, 0.3267, -0.2182617, 0.3267, -15, 0.3267, -1.097561, 0.3267, 3.1097562
0.3294, -0.1474609, 0.3294, -0.984375, 0.3294, -0.2250977, 0.3294, -22.0121956, 0.3294, 7.9268293, 0.3294, -0.3048781, 0.3294, 0.0102539, 0.3294, -0.9887695, 0.3294, -0.3046875, 0.3294, 10.4878054, 0.3294, 6.9512196, 0.3294, 3.3536587, 0.3294, -0.0849609, 0.3294, -0.9746094, 0.3294, -0.284668, 0.3294, -2.9878049, 0.3294, 1.3414634, 0.3294, -1.1585366, 0.3294, 0.0961914, 0.3294, -0.9907227, 0.3294, -0.21875, 0.3294, -14.6341467, 0.3294, -1.2195122, 0.3294, 3.4146342
0.3321, -0.1479492, 0.3321, -0.9853516, 0.3321, -0.21875, 0.3321, -21.8902435, 0.3321, 8.4146347, 0.3321, 0, 0.3321, 0.012207, 0.3321, -0.9863281, 0.3321, -0.3037109, 0.3321, 10.6097565, 0.3321, 7.0121951, 0.3321, 3.1707318, 0.3321, -0.0874023, 0.3321, -0.9770508, 0.3321, -0.2832031, 0.3321, -2.6219513, 0.3321, 0.9146342, 0.3321, -1.5243902, 0.3321, 0.0942383, 0.3321, -0.9941406, 0.3321, -0.2202148, 0.3321, -14.0243902, 0.3321, -1.8902439, 0.3321, 3.1097562
0.3348, -0.1503906, 0.3348, -0.9863281, 0.3348, -0.2177734, 0.3348, -21.8902435, 0.3348, 8.5975609, 0.3348, -0.2439024, 0.3348, 0.0078125, 0.3348, -0.9873047, 0.3348, -0.3085938, 0.3348, 10.7926836, 0.3348, 7.5, 0.3348, 3.4146342, 0.3348, -0.0839844, 0.3348, -0.9731445, 0.3348, -0.2866211, 0.3348, -2.7439024, 0.3348, 0.7317073, 0.3348, -1.402439, 0.3348, 0.0927734, 0.3348, -0.9882812, 0.3348, -0.2250977, 0.3348, -13.841464, 0.3348, -2.5609756, 0.3348, 3.2317073
0.3375, -0.1474609, 0.3375, -0.9926758, 0.3375, -0.2192383, 0.3375, -21.7682934, 0.3375, 9.0243902, 0.3375, -0.3658537, 0.3375, 0.0107422, 0.3375, -0.9863281, 0.3375, -0.309082, 0.3375, 10.7317076, 0.3375, 7.8658538, 0.3375, 3.3536587, 0.3375, -0.0883789, 0.3375, -0.96875, 0.3375, -0.284668, 0.3375, -2.8658538, 0.3375, 0.6707317, 0.3375, -1.2804878, 0.3375, 0.0908203, 0.3375, -0.9887695, 0.3375, -0.2241211, 0.3375, -14.1463413, 0.3375, -3.7804878, 0.3375, 3.2317073
0.3402, -0.1518555, 0.3402, -0.9868164, 0.3402, -0.2192383, 0.3402, -21.4634151, 0.3402, 9.2073174, 0.3402, -0.1829268, 0.3402, 0.0092773, 0.3402, -0.9819336, 0.3402, -0.3144531, 0.3402, 10.8536587, 0.3402, 8.1707315, 0.3402, 3.3536587, 0.3402, -0.0888672, 0.3402, -0.9648438, 0.3402, -0.2871094, 0.3402, -2.8658538, 0.3402, 0.4878049, 0.3402, -1.2195122, 0.3402, 0.0922852, 0.3402, -0.9892578, 0.3402, -0.2290039, 0.3402, -13.9024391, 0.3402, -4.6341462, 0.3402, 2.9878049
0.3429, -0.1523438, 0.3429, -0.9858398, 0.3429, -0.215332, 0.3429, -21.280489, 0.3429, 9.4512196, 0.3429, -0.3658537, 0.3429, 0.0058594, 0.3429, -0.9804688, 0.3429, -0.3144531, 0.3429, 10.8536587, 0.3429, 8.2317076, 0.3429, 3.2926829, 0.3429, -0.0874023, 0.3429, -0.9677734, 0.3429, -0.2880859, 0.3429, -2.804878, 0.3429, 0, 0.3429, -1.6463414, 0.3429, 0.0957031, 0.3429, -0.9882812, 0.3429, -0.2294922, 0.3429, -13.9634151, 0.3429, -5.609756, 0.3429, 2.9268293
0.3456, -0.1494141, 0.3456, -0.984375, 0.3456, -0.2138672, 0.3456, -21.4024391, 0.3456, 8.841464, 0.3456, -0.4268293, 0.3456, 0.0058594, 0.3456, -0.9799805, 0.3456, -0.3188477, 0.3456, 10.6097565, 0.3456, 8.2317076, 0.3456, 3.1097562, 0.3456, -0.0932617, 0.3456, -0.9677734, 0.3456, -0.2890625, 0.3456, -2.804878, 0.3456, -1.097561, 0.3456, -1.6463414, 0.3456, 0.1005859, 0.3456, -0.9799805, 0.3456, -0.2338867, 0.3456, -14.2073174, 0.3456, -6.4024391, 0.3456, 3.1707318
0.3483, -0.1567383, 0.3483, -0.9848633, 0.3483, -0.2124023, 0.3483, -21.3414631, 0.3483, 8.4756098, 0.3483, -0.1219512, 0.3483, 0.0014648, 0.3483, -0.9755859, 0.3483, -0.324707, 0.3483, 10.5487804, 0.3483, 7.9268293, 0.3483, 3.3536587, 0.3483, -0.0898438, 0.3483, -0.9746094, 0.3483, -0.2861328, 0.3483, -2.8658538, 0.3483, -1.5243902, 0.3483, -1.7073171, 0.3483, 0.1040039, 0.3483, -0.9814453, 0.3483, -0.2358398, 0.3483, -14.5121956, 0.3483, -6.5853658, 0.3483, 2.9268293
0.351, -0.1552734, 0.351, -0.9873047, 0.351, -0.2148438, 0.351, -21.1585369, 0.351, 7.9878049, 0.351, -0.3658537, 0.351, -0.0004883, 0.351, -0.9765625, 0.351, -0.3242188, 0.351, 10.1219511, 0.351, 7.4390244, 0.351, 3.2926829, 0.351, -0.0898438, 0.351, -0.9716797, 0.351, -0.2875977, 0.351, -3.2317073, 0.351, -2.3780489, 0.351, -1.7073171, 0.351, 0.1074219, 0.351, -0.984375, 0.351, -0.2338867, 0.351, -14.8170738, 0.351, -6.5243902, 0.351, 2.9878049
0.3537, -0.1586914, 0.3537, -0.9892578, 0.3537, -0.2124023, 0.3537, -21.5243912, 0.3537, 7.4390244, 0.3537, -0.2439024, 0.3537, 0.003418, 0.3537, -0.9794922, 0.3537, -0.3217773, 0.3537, 9.8780489, 0.3537, 7.3170733, 0.3537, 3.2926829, 0.3537, -0.0927734, 0.3537, -0.9731445, 0.3537, -0.2861328, 0.3537, -2.9268293, 0.3537, -2.6219513, 0.3537, -1.8292683, 0.3537, 0.1083984, 0.3537, -0.9863281, 0.3537, -0.2358398, 0.3537, -14.8780489, 0.3537, -6.4024391, 0.3537, 2.804878
0.3564, -0.1499023, 0.3564, -0.9887695, 0.3564, -0.2094727, 0.3564, -21.7073174, 0.3564, 6.5243902, 0.3564, -0.3048781, 0.3564, 0.0043945, 0.3564, -0.980957, 0.3564, -0.3193359, 0.3564, 9.2682924, 0.3564, 7.0121951, 0.3564, 3.3536587, 0.3564, -0.090332, 0.3564, -0.9746094, 0.3564, -0.2895508, 0.3564, -2.9878049, 0.3564, -3.2926829, 0.3564, -1.6463414, 0.3564, 0.1069336, 0.3564, -0.9873047, 0.3564, -0.230957, 0.3564, -14.8170738, 0.3564, -6.0975609, 0.3564, 2.804878
0.3591, -0.1533203, 0.3591, -0.9882812, 0.3591, -0.2099609, 0.3591, -21.5853672, 0.3591, 6.1585369, 0.3591, -0.3048781, 0.3591, 0.0019531, 0.3591, -0.9780273, 0.3591, -0.3168945, 0.3591, 9.3902445, 0.3591, 6.5243902, 0.3591, 3.1097562, 0.3591, -0.090332, 0.3591, -0.9746094, 0.3591, -0.2910156, 0.3591, -2.6829269, 0.3591, -3.3536587, 0.3591, -1.5243902, 0.3591, 0.1025391, 0.3591, -0.987793, 0.3591, -0.2338867, 0.3591, -15, 0.3591, -5.8536587, 0.3591, 2.6219513
0.3618, -0.1508789, 0.3618, -0.9882812, 0.3618, -0.2104492, 0.3618, -21.3414631, 0.3618, 5.4268293, 0.3618, -0.8536586, 0.3618, -0.0019531, 0.3618, -0.9799805, 0.3618, -0.3100586, 0.3618, 9.1463413, 0.3618, 5.670732, 0.3618, 3.4146342, 0.3618, -0.0854492, 0.3618, -0.9760742, 0.3618, -0.2880859, 0.3618, -2.6829269, 0.3618, -4.1463413, 0.3618, -1.8292683, 0.3618, 0.1064453, 0.3618, -0.9887695, 0.3618, -0.2338867, 0.3618, -15.1829271, 0.3618, -6.280488, 0.3618, 2.9268293
0.3645, -0.1518555, 0.3645, -0.9916992, 0.3645, -0.2084961, 0.3645, -21.2195129, 0.3645, 4.8780489, 0.3645, -0.6707317, 0.3645, -0.0014648, 0.3645, -0.9780273, 0.3645, -0.3066406, 0.3645, 9.1463413, 0.3645, 5.9146342, 0.3645, 3.5975611, 0.3645, -0.0859375, 0.3645, -0.9746094, 0.3645, -0.2817383, 0.3645, -2.4390244, 0.3645, -4.390244, 0.3645, -1.8292683, 0.3645, 0.105957, 0.3645, -0.9902344, 0.3645, -0.2353516, 0.3645, -15.060976, 0.3645, -6.6463418, 0.3645, 2.8658538
0.3672, -0.1459961, 0.3672, -0.9912109, 0.3672, -0.2089844, 0.3672, -21.1585369, 0.3672, 4.9390244, 0.3672, -0.8536586, 0.3672, -0.0004883, 0.3672, -0.9780273, 0.3672, -0.3051758, 0.3672, 8.9634151, 0.3672, 5.3048782, 0.3672, 3.6585367, 0.3672, -0.0820312, 0.3672, -0.9765625, 0.3672, -0.2841797, 0.3672, -2.4390244, 0.3672, -4.5731707, 0.3672, -1.5243902, 0.3672, 0.1108398, 0.3672, -0.9902344, 0.3672, -0.2319336, 0.3672, -14.9390249, 0.3672, -7.6219516, 0.3672, 2.9878049
0.3699, -0.144043, 0.3699, -0.9926758, 0.3699, -0.2041016, 0.3699, -20.9146347, 0.3699, 4.6341462, 0.3699, -0.6707317, 0.3699, 0.003418, 0.3699, -0.9785156, 0.3699, -0.3037109, 0.3699, 8.780488, 0.3699, 5.4878049, 0.3699, 3.1097562, 0.3699, -0.0786133, 0.3699, -0.9775391, 0.3699, -0.284668, 0.3699, -2.3780489, 0.3699, -4.7560978, 0.3699, -1.8902439, 0.3699, 0.1142578, 0.3699, -0.9926758, 0.3699, -0.2294922, 0.3699, -15, 0.3699, -7.9268293, 0.3699, 2.804878
0.3726, -0.144043, 0.3726, -0.9907227, 0.3726, -0.2016602, 0.3726, -20.3048782, 0.3726, 4.9390244, 0.3726, -0.8536586, 0.3726, 0.0019531, 0.3726, -0.980957, 0.3726, -0.3037109, 0.3726, 9.2073174, 0.3726, 5.7926831, 0.3726, 3.6585367, 0.3726, -0.0712891, 0.3726, -0.9775391, 0.3726, -0.2827148, 0.3726, -2.3780489, 0.3726, -4.6341462, 0.3726, -2.1341465, 0.3726, 0.1201172, 0.3726, -0.9936523, 0.3726, -0.230957, 0.3726, -14.5121956, 0.3726, -8.4756098, 0.3726, 2.9878049
0.3753, -0.1411133, 0.3753, -0.9873047, 0.3753, -0.199707, 0.3753, -20.4878044, 0.3753, 5.5487804, 0.3753, -0.9756098, 0.3753, 0.0004883, 0.3753, -0.9838867, 0.3753, -0.2983398, 0.3753, 9.7560978, 0.3753, 6.6463418, 0.3753, 3.4146342, 0.3753, -0.0634766, 0.3753, -0.9799805, 0.3753, -0.2822266, 0.3753, -2.3780489, 0.3753, -4.5121951, 0.3753, -2.1341465, 0.3753, 0.1206055, 0.3753, -0.9921875, 0.3753, -0.2333984, 0.3753, -14.3902445, 0.3753, -8.4146347, 0.3753, 3.1707318
0.378, -0.140625, 0.378, -0.987793, 0.378, -0.2001953, 0.378, -20.060976, 0.378, 5.7317076, 0.378, -0.9756098, 0.378, 0.0043945, 0.378, -0.9853516, 0.378, -0.300293, 0.378, 9.9390249, 0.378, 6.8292685, 0.378, 3.4756098, 0.378, -0.0634766, 0.378, -0.9760742, 0.378, -0.284668, 0.378, -2.5, 0.378, -3.5365853, 0.378, -1.8292683, 0.378, 0.1206055, 0.378, -0.9931641, 0.378, -0.2358398, 0.378, -14.2073174, 0.378, -7.4390244, 0.378, 3.1097562
0.3807, -0.1420898, 0.3807, -0.9887695, 0.3807, -0.1948242, 0.3807, -20.3048782, 0.3807, 6.2195125, 0.3807, -0.9756098, 0.3807, 0.0029297, 0.3807, -0.9824219, 0.3807, -0.2988281, 0.3807, 10.1219511, 0.3807, 7.6219516, 0.3807, 3.2317073, 0.3807, -0.0576172, 0.3807, -0.972168, 0.3807, -0.2797852, 0.3807, -2.3780489, 0.3807, -2.6219513, 0.3807, -1.7682927, 0.3807, 0.1254883, 0.3807, -0.9907227, 0.3807, -0.2368164, 0.3807, -14.0243902, 0.3807, -6.9512196, 0.3807, 2.7439024
0.3834, -0.1416016, 0.3834, -0.9892578, 0.3834, -0.1992188, 0.3834, -20, 0.3834, 6.9512196, 0.3834, -0.7926829, 0.3834, 0.0024414, 0.3834, -0.9833984, 0.3834, -0.3017578, 0.3834, 10.4268293, 0.3834, 7.8048782, 0.3834, 3.1707318, 0.3834, -0.0581055, 0.3834, -0.9716797, 0.3834, -0.2797852, 0.3834, -2.5, 0.3834, -2.1341465, 0.3834, -1.8292683, 0.3834, 0.1230469, 0.3834, -0.987793, 0.3834, -0.2368164, 0.3834, -13.9024391, 0.3834, -5.3048782, 0.3834, 2.8658538
0.3861, -0.1420898, 0.3861, -0.9882812, 0.3861, -0.1992188, 0.3861, -19.8170738, 0.3861, 7.5, 0.3861, -0.9756098, 0.3861, 0.0048828, 0.3861, -0.984375, 0.3861, -0.3007812, 0.3861, 10.6097565, 0.3861, 8.4756098, 0.3861, 3.5975611, 0.3861, -0.0576172, 0.3861, -0.9726562, 0.3861, -0.2773438, 0.3861, -2.4390244, 0.3861, -1.3414634, 0.3861, -1.9512196, 0.3861, 0.1206055, 0.3861, -0.9848633, 0.3861, -0.2358398, 0.3861, -14.4512196, 0.3861, -3.7195122, 0.3861, 3.1097562
0.3888, -0.144043, 0.3888, -0.9882812, 0.3888, -0.2006836, 0.3888, -20.1219521, 0.3888, 7.9878049, 0.3888, -0.7926829, 0.3888, 0.0043945, 0.3888, -0.9804688, 0.3888, -0.3046875, 0.3888, 10.9146347, 0.3888, 8.2926826, 0.3888, 3.1707318, 0.3888, -0.0620117, 0.3888, -0.9711914, 0.3888, -0.2773438, 0.3888, -2.5, 0.3888, -1.0365853, 0.3888, -1.6463414, 0.3888, 0.1196289, 0.3888, -0.984375, 0.3888, -0.2373047, 0.3888, -14.5731707, 0.3888, -3.2926829, 0.3888, 3.1097562
0.3915, -0.1425781, 0.3915, -0.9902344, 0.3915, -0.2055664, 0.3915, -20.2439022, 0.3915, 8.2926826, 0.3915, -0.7317073, 0.3915, -0.0004883, 0.3915, -0.9765625, 0.3915, -0.3061523, 0.3915, 11.0975609, 0.3915, 8.3536587, 0.3915, 2.8658538, 0.3915, -0.0595703, 0.3915, -0.972168, 0.3915, -0.2729492, 0.3915, -2.804878, 0.3915, -0.4268293, 0.3915, -1.7682927, 0.3915, 0.109375, 0.3915, -0.9858398, 0.3915, -0.2324219, 0.3915, -13.9024391, 0.3915, -1.9512196, 0.3915, 3.1707318
0.3942, -0.144043, 0.3942, -0.9873047, 0.3942, -0.206543, 0.3942, -20, 0.3942, 8.4146347, 0.3942, -0.4878049, 0.3942, -0.0004883, 0.3942, -0.9814453, 0.3942, -0.3056641, 0.3942, 11.219512, 0.3942, 7.9268293, 0.3942, 2.9268293, 0.3942, -0.0678711, 0.3942, -0.9731445, 0.3942, -0.2773438, 0.3942, -2.5, 0.3942, -0.3658537, 0.3942, -1.7073171, 0.3942, 0.1088867, 0.3942, -0.9873047, 0.3942, -0.2333984, 0.3942, -13.780488, 0.3942, -1.8292683, 0.3942, 3.2926829
0.3969, -0.1459961, 0.3969, -0.9921875, 0.3969, -0.2084961, 0.3969, -20.4878044, 0.3969, 8.2317076, 0.3969, -0.4878049, 0.3969, -0.0014648, 0.3969, -0.9770508, 0.3969, -0.3095703, 0.3969, 11.1585369, 0.3969, 7.3780489, 0.3969, 3.2926829, 0.3969, -0.0649414, 0.3969, -0.9731445, 0.3969, -0.2768555, 0.3969, -2.4390244, 0.3969, -0.0609756, 0.3969, -1.8292683, 0.3969, 0.1020508, 0.3969, -0.9892578, 0.3969, -0.234375, 0.3969, -13.780488, 0.3969, -1.7682927, 0.3969, 3.3536587
0.3996, -0.1464844, 0.3996, -0.9926758, 0.3996, -0.2133789, 0.3996, -20.9146347, 0.3996, 7.8658538, 0.3996, -0.4878049, 0.3996, 0.0009766, 0.3996, -0.980957, 0.3996, -0.309082, 0.3996, 10.9146347, 0.3996, 7.1951222, 0.3996, 3.1097562, 0.3996, -0.0717773, 0.3996, -0.9750977, 0.3996, -0.2807617, 0.3996, -2.8658538, 0.3996, -0.0609756, 0.3996, -1.1585366, 0.3996, 0.097168, 0.3996, -0.9887695, 0.3996, -0.2363281, 0.3996, -13.9024391, 0.3996, -1.8902439, 0.3996, 3.4146342
0.4023, -0.1469727, 0.4023, -0.9916992, 0.4023, -0.2128906, 0.4023, -21.4024391, 0.4023, 7.8048782, 0.4023, -0.5487805, 0.4023, 0.0004883, 0.4023, -0.9804688, 0.4023, -0.3085938, 0.4023, 10.4878054, 0.4023, 6.5243902, 0.4023, 3.0487804, 0.4023, -0.0727539, 0.4023, -0.9731445, 0.4023, -0.2817383, 0.4023, -2.8658538, 0.4023, -0.1829268, 0.4023, -1.402439, 0.4023, 0.0976562, 0.4023, -0.9912109, 0.4023, -0.230957, 0.4023, -14.2073174, 0.4023, -2.1341465, 0.4023, 3.2926829
0.405, -0.1503906, 0.405, -0.9921875, 0.405, -0.2143555, 0.405, -21.7073174, 0.405, 7.8048782, 0.405, -0.4268293, 0.405, -0.0019531, 0.405, -0.9819336, 0.405, -0.3061523, 0.405, 10.3048782, 0.405, 6.2195125, 0.405, 3.2317073, 0.405, -0.0786133, 0.405, -0.9765625, 0.405, -0.2822266, 0.405, -2.7439024, 0.405, -0.3658537, 0.405, -1.5853659, 0.405, 0.0976562, 0.405, -0.9921875, 0.405, -0.2275391, 0.405, -14.2682934, 0.405, -2.3780489, 0.405, 3.5975611
0.4077, -0.152832, 0.4077, -0.996582, 0.4077, -0.2124023, 0.4077, -21.9512196, 0.4077, 7.5, 0.4077, -0.3658537, 0.4077, -0.0019531, 0.4077, -0.9858398, 0.4077, -0.3051758, 0.4077, 9.6341467, 0.4077, 5.4878049, 0.4077, 3.4756098, 0.4077, -0.0766602, 0.4077, -0.9833984, 0.4077, -0.2822266, 0.4077, -2.804878, 0.4077, -0.3658537, 0.4077, -1.5243902, 0.4077, 0.0961914, 0.4077, -0.9921875, 0.4077, -0.2265625, 0.4077, -14.5121956, 0.4077, -3.1707318, 0.4077, 3.1707318
0.4104, -0.1450195, 0.4104, -0.9931641, 0.4104, -0.2109375, 0.4104, -21.7682934, 0.4104, 7.2560978, 0.4104, -0.1219512, 0.4104, 0, 0.4104, -0.9853516, 0.4104, -0.3051758, 0.4104, 9.2073174, 0.4104, 5.4268293, 0.4104, 3.1097562, 0.4104, -0.0776367, 0.4104, -0.9824219, 0.4104, -0.2822266, 0.4104, -2.7439024, 0.4104, -0.6097561, 0.4104, -1.6463414, 0.4104, 0.0927734, 0.4104, -0.9975586, 0.4104, -0.2246094, 0.4104, -14.7560978, 0.4104, -3.2926829, 0.4104, 3.2317073
0.4131, -0.144043, 0.4131, -0.996582, 0.4131, -0.2094727, 0.4131, -21.6463413, 0.4131, 7.0731707, 0.4131, -0.1219512, 0.4131, 0.0043945, 0.4131, -0.9897461, 0.4131, -0.3041992, 0.4131, 9.2073174, 0.4131, 5.4878049, 0.4131, 3.3536587, 0.4131, -0.0791016, 0.4131, -0.9794922, 0.4131, -0.2841797, 0.4131, -2.5609756, 0.4131, -0.8536586, 0.4131, -1.8292683, 0.4131, 0.0917969, 0.4131, -0.9995117, 0.4131, -0.2265625, 0.4131, -14.3902445, 0.4131, -3.9634147, 0.4131, 3.1707318
0.4158, -0.1445312, 0.4158, -0.9956055, 0.4158, -0.2084961, 0.4158, -21.6463413, 0.4158, 7.3780489, 0.4158, -0.1829268, 0.4158, 0.0039062, 0.4158, -0.9873047, 0.4158, -0.3066406, 0.4158, 9.7560978, 0.4158, 5.4878049, 0.4158, 3.4756098, 0.4158, -0.0786133, 0.4158, -0.9790039, 0.4158, -0.2822266, 0.4158, -2.6829269, 0.4158, -0.9146342, 0.4158, -1.7073171, 0.4158, 0.097168, 0.4158, -1, 0.4158, -0.2255859, 0.4158, -14.1463413, 0.4158, -4.390244, 0.4158, 3.1097562
0.4185, -0.1474609, 0.4185, -0.9926758, 0.4185, -0.206543, 0.4185, -21.4634151, 0.4185, 7.5, 0.4185, -0.0609756, 0.4185, 0.0019531, 0.4185, -0.9897461, 0.4185, -0.3027344, 0.4185, 9.8170738, 0.4185, 5.5487804, 0.4185, 3.3536587, 0.4185, -0.081543, 0.4185, -0.9770508, 0.4185, -0.284668, 0.4185, -2.6829269, 0.4185, -0.8536586, 0.4185, -1.7073171, 0.4185, 0.0947266, 0.4185, -0.9985352, 0.4185, -0.2231445, 0.4185, -13.841464, 0.4185, -5.1219511, 0.4185, 3.1707318
0.4212, -0.1469727, 0.4212, -0.9907227, 0.4212, -0.2075195, 0.4212, -21.0975609, 0.4212, 7.7439027, 0.4212, -0.3048781, 0.4212, 0.0068359, 0.4212, -0.9868164, 0.4212, -0.3022461, 0.4212, 10.1829271, 0.4212, 5.7317076, 0.4212, 3.3536587, 0.4212, -0.0859375, 0.4212, -0.9711914, 0.4212, -0.2880859, 0.4212, -2.6829269, 0.4212, -1.097561, 0.4212, -1.8292683, 0.4212, 0.1005859, 0.4212, -0.9946289, 0.4212, -0.2294922, 0.4212, -13.2926836, 0.4212, -5.5487804, 0.4212, 3.1707318
0.4239, -0.1474609, 0.4239, -0.987793, 0.4239, -0.2041016, 0.4239, -21.2195129, 0.4239, 7.9268293, 0.4239, -0.3048781, 0.4239, 0.0019531, 0.4239, -0.9814453, 0.4239, -0.3027344, 0.4239, 10.7317076, 0.4239, 5.9146342, 0.4239, 3.4146342, 0.4239, -0.0805664, 0.4239, -0.9692383, 0.4239, -0.2871094, 0.4239, -2.6219513, 0.4239, -1.7682927, 0.4239, -1.8292683, 0.4239, 0.105957, 0.4239, -0.9960938, 0.4239, -0.2358398, 0.4239, -13.0487804, 0.4239, -6.3414636, 0.4239, 3.3536587
0.4266, -0.1464844, 0.4266, -0.9838867, 0.4266, -0.2036133, 0.4266, -20.9146347, 0.4266, 8.0487804, 0.4266, -0.1829268, 0.4266, 0.0043945, 0.4266, -0.980957, 0.4266, -0.3061523, 0.4266, 10.9756098, 0.4266, 6.4634147, 0.4266, 3.4756098, 0.4266, -0.0834961, 0.4266, -0.9726562, 0.4266, -0.2905273, 0.4266, -2.7439024, 0.4266, -1.6463414, 0.4266, -1.5243902, 0.4266, 0.1118164, 0.4266, -0.9873047, 0.4266, -0.2387695, 0.4266, -12.9878054, 0.4266, -7.0731707, 0.4266, 3.3536587
0.4293, -0.1499023, 0.4293, -0.9873047, 0.4293, -0.2045898, 0.4293, -21.1585369, 0.4293, 7.8658538, 0.4293, -0.2439024, 0.4293, 0.0063477, 0.4293, -0.9780273, 0.4293, -0.3105469, 0.4293, 11.280488, 0.4293, 7.1341467, 0.4293, 3.5975611, 0.4293, -0.0859375, 0.4293, -0.9692383, 0.4293, -0.2885742, 0.4293, -2.8658538, 0.4293, -1.8902439, 0.4293, -1.7682927, 0.4293, 0.1147461, 0.4293, -0.9863281, 0.4293, -0.2412109, 0.4293, -12.9268293, 0.4293, -7.3780489, 0.4293, 2.9878049
0.432, -0.1533203, 0.432, -0.9848633, 0.432, -0.2045898, 0.432, -21.2195129, 0.432, 8.2317076, 0.432, 0, 0.432, 0.0024414, 0.432, -0.9770508, 0.432, -0.3115234, 0.432, 11.280488, 0.432, 7.3170733, 0.432, 3.4756098, 0.432, -0.0830078, 0.432, -0.9682617, 0.432, -0.2856445, 0.432, -2.6219513, 0.432, -2.1341465, 0.432, -1.7073171, 0.432, 0.1220703, 0.432, -0.9868164, 0.432, -0.2426758, 0.432, -13.2317076, 0.432, -7.6219516, 0.432, 3.0487804
0.4347, -0.1494141, 0.4347, -0.9882812, 0.4347, -0.2080078, 0.4347, -21.0975609, 0.4347, 8.2926826, 0.4347, -0.2439024, 0.4347, -0.0009766, 0.4347, -0.9765625, 0.4347, -0.3193359, 0.4347, 10.8536587, 0.4347, 7.6219516, 0.4347, 3.9024391, 0.4347, -0.0874023, 0.4347, -0.9726562, 0.4347, -0.2832031, 0.4347, -2.8658538, 0.4347, -2.195122, 0.4347, -1.7073171, 0.4347, 0.1220703, 0.4347, -0.984375, 0.4347, -0.2436523, 0.4347, -13.2926836, 0.4347, -7.0731707, 0.4347, 3.0487804
0.4374, -0.1464844, 0.4374, -0.9941406, 0.4374, -0.2070312, 0.4374, -21.4634151, 0.4374, 8.2317076, 0.4374, 0.0609756, 0.4374, -0.0024414, 0.4374, -0.9755859, 0.4374, -0.3164062, 0.4374, 10.5487804, 0.4374, 7.5609756, 0.4374, 3.8414636, 0.4374, -0.0854492, 0.4374, -0.9716797, 0.4374, -0.2817383, 0.4374, -2.8658538, 0.4374, -2.3170731, 0.4374, -1.5243902, 0.4374, 0.128418, 0.4374, -0.9824219, 0.4374, -0.2441406, 0.4374, -13.7195129, 0.4374, -6.0975609, 0.4374, 3.2926829
0.4401, -0.1484375, 0.4401, -0.9926758, 0.4401, -0.206543, 0.4401, -21.4024391, 0.4401, 8.4756098, 0.4401, 0, 0.4401, -0.0009766, 0.4401, -0.9775391, 0.4401, -0.3222656, 0.4401, 10.060976, 0.4401, 7.5609756, 0.4401, 3.9634147, 0.4401, -0.0825195, 0.4401, -0.9780273, 0.4401, -0.2836914, 0.4401, -2.5, 0.4401, -2.7439024, 0.4401, -1.402439, 0.4401, 0.1254883, 0.4401, -0.9858398, 0.4401, -0.2421875, 0.4401, -13.780488, 0.4401, -5.3048782, 0.4401, 3.4756098
0.4428, -0.1479492, 0.4428, -0.9956055, 0.4428, -0.2041016, 0.4428, -21.1585369, 0.4428, 8.1707315, 0.4428, -0.1829268, 0.4428, -0.0024414, 0.4428, -0.9755859, 0.4428, -0.3203125, 0.4428, 9.8780489, 0.4428, 7.1341467, 0.4428, 3.9024391, 0.4428, -0.0776367, 0.4428, -0.9790039, 0.4428, -0.2807617, 0.4428, -2.5609756, 0.4428, -2.8658538, 0.4428, -1.6463414, 0.4428, 0.1259766, 0.4428, -0.9833984, 0.4428, -0.2412109, 0.4428, -14.0853662, 0.4428, -4.1463413, 0.4428, 3.0487804
0.4455, -0.1479492, 0.4455, -0.9946289, 0.4455, -0.2075195, 0.4455, -20.5487804, 0.4455, 7.8658538, 0.4455, -0.3658537, 0.4455, -0.0039062, 0.4455, -0.9804688, 0.4455, -0.3212891, 0.4455, 8.9024391, 0.4455, 6.4024391, 0.4455, 3.9634147, 0.4455, -0.0727539, 0.4455, -0.9824219, 0.4455, -0.2802734, 0.4455, -2.6219513, 0.4455, -2.6829269, 0.4455, -1.4634147, 0.4455, 0.1191406, 0.4455, -0.9838867, 0.4455, -0.2338867, 0.4455, -13.6585369, 0.4455, -3.4756098, 0.4455, 3.2926829
0.4482, -0.1484375, 0.4482, -0.9985352, 0.4482, -0.2026367, 0.4482, -20.4268303, 0.4482, 7.3170733, 0.4482, -0.3048781, 0.4482, -0.003418, 0.4482, -0.9819336, 0.4482, -0.3139648, 0.4482, 9.0243902, 0.4482, 6.3414636, 0.4482, 4.0853658, 0.4482, -0.0688477, 0.4482, -0.9804688, 0.4482, -0.2797852, 0.4482, -2.5609756, 0.4482, -2.8658538, 0.4482, -1.6463414, 0.4482, 0.1162109, 0.4482, -0.9873047, 0.4482, -0.2348633, 0.4482, -13.6585369, 0.4482, -2.1341465, 0.4482, 3.5365853
0.4509, -0.1450195, 0.4509, -0.9975586, 0.4509, -0.2011719, 0.4509, -19.7560978, 0.4509, 7.2560978, 0.4509, -0.6097561, 0.4509, 0.0004883, 0.4509, -0.9814453, 0.4509, -0.3120117, 0.4509, 9.1463413, 0.4509, 5.9146342, 0.4509, 4.4512196, 0.4509, -0.0644531, 0.4509, -0.9780273, 0.4509, -0.277832, 0.4509, -2.5609756, 0.4509, -2.6219513, 0.4509, -1.6463414, 0.4509, 0.1176758, 0.4509, -0.9897461, 0.4509, -0.2304688, 0.4509, -13.2926836, 0.4509, -1.5853659, 0.4509, 3.7804878
0.4536, -0.1435547, 0.4536, -1.0004883, 0.4536, -0.2036133, 0.4536, -19.1463413, 0.4536, 6.6463418, 0.4536, -0.3658537, 0.4536, 0.0048828, 0.4536, -0.9838867, 0.4536, -0.3085938, 0.4536, 9.0853662, 0.4536, 5.7317076, 0.4536, 4.1463413, 0.4536, -0.0649414, 0.4536, -0.9736328, 0.4536, -0.2783203, 0.4536, -2.3780489, 0.4536, -2.195122, 0.4536, -1.7682927, 0.4536, 0.1137695, 0.4536, -0.9863281, 0.4536, -0.2319336, 0.4536, -12.8658543, 0.4536, -1.097561, 0.4536, 3.7195122
0.4563, -0.140625, 0.4563, -0.9980469, 0.4563, -0.2041016, 0.4563, -19.0853672, 0.4563, 6.280488, 0.4563, -0.3658537, 0.4563, 0.0068359, 0.4563, -0.9863281, 0.4563, -0.3081055, 0.4563, 9.3902445, 0.4563, 5.5487804, 0.4563, 4.3292685, 0.4563, -0.0634766, 0.4563, -0.9716797, 0.4563, -0.2783203, 0.4563, -2.5609756, 0.4563, -1.8292683, 0.4563, -1.5853659, 0.4563, 0.1142578, 0.4563, -0.9887695, 0.4563, -0.2265625, 0.4563, -13.1097565, 0.4563, -0.7926829, 0.4563, 3.6585367
0.459, -0.1420898, 0.459, -0.9985352, 0.459, -0.2055664, 0.459, -18.7195129, 0.459, 6.4024391, 0.459, -0.4268293, 0.459, 0.0102539, 0.459, -0.9848633, 0.459, -0.3022461, 0.459, 9.7560978, 0.459, 5.670732, 0.459, 4.1463413, 0.459, -0.0610352, 0.459, -0.9702148, 0.459, -0.2807617, 0.459, -2.3780489, 0.459, -1.2804878, 0.459, -1.8902439, 0.459, 0.1137695, 0.459, -0.9873047, 0.459, -0.230957, 0.459, -13.4756098, 0.459, -0.9756098, 0.459, 3.3536587
0.4617, -0.1401367, 0.4617, -0.9946289, 0.4617, -0.2060547, 0.4617, -18.7195129, 0.4617, 6.4024391, 0.4617, -0.2439024, 0.4617, 0.0136719, 0.4617, -0.9848633, 0.4617, -0.2998047, 0.4617, 9.8170738, 0.4617, 6.4634147, 0.4617, 4.2682929, 0.4617, -0.0585938, 0.4617, -0.9711914, 0.4617, -0.28125, 0.4617, -2.6829269, 0.4617, -0.9146342, 0.4617, -1.8292683, 0.4617, 0.112793, 0.4617, -0.9863281, 0.4617, -0.2329102, 0.4617, -13.5975609, 0.4617, -1.0365853, 0.4617, 3.4146342
0.4644, -0.140625, 0.4644, -0.9936523, 0.4644, -0.2089844, 0.4644, -18.9634151, 0.4644, 6.4024391, 0.4644, -0.4268293, 0.4644, 0.0151367, 0.4644, -0.9868164, 0.4644, -0.2993164, 0.4644, 10.2439022, 0.4644, 7.0121951, 0.4644, 4.0243902, 0.4644, -0.0551758, 0.4644, -0.9672852, 0.4644, -0.2802734, 0.4644, -2.9878049, 0.4644, 0, 0.4644, -1.9512196, 0.4644, 0.1069336, 0.4644, -0.9853516, 0.4644, -0.2299805, 0.4644, -13.7195129, 0.4644, -1.097561, 0.4644, 3.1707318
0.4671, -0.1362305, 0.4671, -0.9926758, 0.4671, -0.2109375, 0.4671, -19.0853672, 0.4671, 6.8292685, 0.4671, -0.4878049, 0.4671, 0.0170898, 0.4671, -0.9873047, 0.4671, -0.2993164, 0.4671, 10.1829271, 0.4671, 7.8658538, 0.4671, 4.2682929, 0.4671, -0.0571289, 0.4671, -0.9707031, 0.4671, -0.2836914, 0.4671, -2.9268293, 0.4671, 0.1219512, 0.4671, -1.7682927, 0.4671, 0.1064453, 0.4671, -0.9921875, 0.4671, -0.2299805, 0.4671, -13.9634151, 0.4671, -1.2195122, 0.4671, 3.1097562
0.4698, -0.1376953, 0.4698, -0.9916992, 0.4698, -0.2124023, 0.4698, -19.0243912, 0.4698, 7.5609756, 0.4698, -0.2439024, 0.4698, 0.0170898, 0.4698, -0.9868164, 0.4698, -0.2983398, 0.4698, 10.7317076, 0.4698, 8.1097565, 0.4698, 4.0243902, 0.4698, -0.0566406, 0.4698, -0.9682617, 0.4698, -0.2851562, 0.4698, -2.8658538, 0.4698, 0.7926829, 0.4698, -1.8292683, 0.4698, 0.1049805, 0.4698, -0.9912109, 0.4698, -0.2285156, 0.4698, -14.2073174, 0.4698, -1.0365853, 0.4698, 3.5365853
0.4725, -0.1347656, 0.4725, -0.9907227, 0.4725, -0.2124023, 0.4725, -19.3292694, 0.4725, 8.0487804, 0.4725, -0.2439024, 0.4725, 0.0185547, 0.4725, -0.9897461, 0.4725, -0.2973633, 0.4725, 11.4024391, 0.4725, 9.0853662, 0.4725, 3.9634147, 0.4725, -0.0644531, 0.4725, -0.9804688, 0.4725, -0.2841797, 0.4725, -2.804878, 0.4725, 1.7682927, 0.4725, -1.3414634, 0.4725, 0.1010742, 0.4725, -0.9970703, 0.4725, -0.2285156, 0.4725, -13.780488, 0.4725, -1.1585366, 0.4725, 3.5365853
0.4752, -0.1381836, 0.4752, -0.9838867, 0.4752, -0.2138672, 0.4752, -19.8780499, 0.4752, 8.6585369, 0.4752, -0.2439024, 0.4752, 0.0161133, 0.4752, -0.9931641, 0.4752, -0.2978516, 0.4752, 11.6463413, 0.4752, 9.7560978, 0.4752, 3.7804878, 0.4752, -0.0668945, 0.4752, -0.9819336, 0.4752, -0.2871094, 0.4752, -2.6829269, 0.4752, 2.0121951, 0.4752, -1.2804878, 0.4752, 0.1030273, 0.4752, -0.9956055, 0.4752, -0.2231445, 0.4752, -13.5975609, 0.4752, -1.0365853, 0.4752, 3.4756098
0.4779, -0.137207, 0.4779, -0.9902344, 0.4779, -0.2163086, 0.4779, -19.939024, 0.4779, 9.3902445, 0.4779, -0.0609756, 0.4779, 0.0170898, 0.4779, -0.9902344, 0.4779, -0.2998047, 0.4779, 11.7073174, 0.4779, 9.9390249, 0.4779, 3.9634147, 0.4779, -0.0678711, 0.4779, -0.9775391, 0.4779, -0.2880859, 0.4779, -2.804878, 0.4779, 2.3780489, 0.4779, -1.402439, 0.4779, 0.1054688, 0.4779, -0.9873047, 0.4779, -0.2197266, 0.4779, -13.780488, 0.4779, -1.5243902, 0.4779, 3.7195122
0.4806, -0.1357422, 0.4806, -0.9897461, 0.4806, -0.2182617, 0.4806, -20.3048782, 0.4806, 10, 0.4806, -0.3048781, 0.4806, 0.0161133, 0.4806, -0.987793, 0.4806, -0.3027344, 0.4806, 11.9512196, 0.4806, 10.1219511, 0.4806, 3.9634147, 0.4806, -0.074707, 0.4806, -0.9780273, 0.4806, -0.2885742, 0.4806, -2.7439024, 0.4806, 2.5, 0.4806, -1.2804878, 0.4806, 0.1020508, 0.4806, -0.9926758, 0.4806, -0.2192383, 0.4806, -13.5365858, 0.4806, -1.8292683, 0.4806, 3.7195122
0.4833, -0.1367188, 0.4833, -0.9897461, 0.4833, -0.2207031, 0.4833, -20.4268303, 0.4833, 10.4268293, 0.4833, -0.1829268, 0.4833, 0.0117188, 0.4833, -0.9858398, 0.4833, -0.3041992, 0.4833, 11.7682934, 0.4833, 10.1829271, 0.4833, 3.9634147, 0.4833, -0.0771484, 0.4833, -0.9804688, 0.4833, -0.2875977, 0.4833, -2.8658538, 0.4833, 2.195122, 0.4833, -1.097561, 0.4833, 0.1025391, 0.4833, -0.9912109, 0.4833, -0.2211914, 0.4833, -13.841464, 0.4833, -2.5609756, 0.4833, 4.0853658
0.486, -0.140625, 0.486, -0.9858398, 0.486, -0.2216797, 0.486, -20.6097565, 0.486, 10.7317076, 0.486, -0.1829268, 0.486, 0.0087891, 0.486, -0.9848633, 0.486, -0.3115234, 0.486, 11.7073174, 0.486, 10.5487804, 0.486, 4.0243902, 0.486, -0.0834961, 0.486, -0.9770508, 0.486, -0.293457, 0.486, -2.5, 0.486, 2.0731707, 0.486, -1.4634147, 0.486, 0.1118164, 0.486, -0.9931641, 0.486, -0.2231445, 0.486, -13.3536587, 0.486, -2.8658538, 0.486, 3.7195122
0.4887, -0.144043, 0.4887, -0.987793, 0.4887, -0.2207031, 0.4887, -20.8536587, 0.4887, 11.1585369, 0.4887, -0.0609756, 0.4887, 0.0043945, 0.4887, -0.9829102, 0.4887, -0.3129883, 0.4887, 11.4634151, 0.4887, 10.4878054, 0.4887, 3.9634147, 0.4887, -0.0849609, 0.4887, -0.9760742, 0.4887, -0.2939453, 0.4887, -2.5, 0.4887, 1.7682927, 0.4887, -1.3414634, 0.4887, 0.1123047, 0.4887, -0.9931641, 0.4887, -0.2280273, 0.4887, -13.4756098, 0.4887, -3.0487804, 0.4887, 4.0853658
0.4914, -0.1459961, 0.4914, -0.9853516, 0.4914, -0.2182617, 0.4914, -20.5487804, 0.4914, 11.4024391, 0.4914, -0.1219512, 0.4914, 0.0024414, 0.4914, -0.9790039, 0.4914, -0.3164062, 0.4914, 11.219512, 0.4914, 10.4878054, 0.4914, 4.2682929, 0.4914, -0.0844727, 0.4914, -0.9741211, 0.4914, -0.2905273, 0.4914, -2.5, 0.4914, 1.4634147, 0.4914, -1.1585366, 0.4914, 0.1098633, 0.4914, -0.9946289, 0.4914, -0.2363281, 0.4914, -13.3536587, 0.4914, -3.1707318, 0.4914, 3.8414636
0.4941, -0.1459961, 0.4941, -0.9873047, 0.4941, -0.2177734, 0.4941, -20.4268303, 0.4941, 11.7073174, 0.4941, -0.1829268, 0.4941, 0.003418, 0.4941, -0.9775391, 0.4941, -0.3212891, 0.4941, 10.8536587, 0.4941, 10.1829271, 0.4941, 3.8414636, 0.4941, -0.0869141, 0.4941, -0.9707031, 0.4941, -0.2890625, 0.4941, -2.5609756, 0.4941, 1.2804878, 0.4941, -1.2195122, 0.4941, 0.1103516, 0.4941, -0.9936523, 0.4941, -0.2373047, 0.4941, -13.4756098, 0.4941, -3.4756098, 0.4941, 3.5975611
0.4968, -0.1489258, 0.4968, -0.9858398, 0.4968, -0.2133789, 0.4968, -20.4878044, 0.4968, 11.6463413, 0.4968, -0.1219512, 0.4968, 0.0019531, 0.4968, -0.9755859, 0.4968, -0.3193359, 0.4968, 10.2439022, 0.4968, 10, 0.4968, 4.1463413, 0.4968, -0.0874023, 0.4968, -0.9731445, 0.4968, -0.2851562, 0.4968, -2.5609756, 0.4968, 1.097561, 0.4968, -1.402439, 0.4968, 0.1098633, 0.4968, -0.9907227, 0.4968, -0.2397461, 0.4968, -13.780488, 0.4968, -3.5975611, 0.4968, 3.4756098
0.4995, -0.1499023, 0.4995, -0.987793, 0.4995, -0.2163086, 0.4995, -20.5487804, 0.4995, 11.219512, 0.4995, -0.1829268, 0.4995, -0.0009766, 0.4995, -0.9741211, 0.4995, -0.3193359, 0.4995, 10.1829271, 0.4995, 9.6341467, 0.4995, 4.0853658, 0.4995, -0.0913086, 0.4995, -0.9736328, 0.4995, -0.2895508, 0.4995, -2.5, 0.4995, 0.3658537, 0.4995, -1.2804878, 0.4995, 0.1103516, 0.4995, -0.9897461, 0.4995, -0.2397461, 0.4995, -13.6585369, 0.4995, -3.5975611, 0.4995, 3.4756098
0.5022, -0.1513672, 0.5022, -0.9858398, 0.5022, -0.2148438, 0.5022, -20.1829281, 0.5022, 10.8536587, 0.5022, -0.1219512, 0.5022, -0.0004883, 0.5022, -0.9750977, 0.5022, -0.3193359, 0.5022, 9.7560978, 0.5022, 8.5365858, 0.5022, 4.2073174, 0.5022, -0.0883789, 0.5022, -0.9760742, 0.5022, -0.2836914, 0.5022, -2.5, 0.5022, -0.2439024, 0.5022, -1.6463414, 0.5022, 0.1123047, 0.5022, -0.9863281, 0.5022, -0.234375, 0.5022, -13.5365858, 0.5022, -3.6585367, 0.5022, 3.2926829
0.5049, -0.1494141, 0.5049, -0.9902344, 0.5049, -0.2128906, 0.5049, -20.1829281, 0.5049, 10.3048782, 0.5049, 0, 0.5049, -0.0024414, 0.5049, -0.9765625, 0.5049, -0.3178711, 0.5049, 9.6341467, 0.5049, 7.8048782, 0.5049, 4.2073174, 0.5049, -0.0878906, 0.5049, -0.9750977, 0.5049, -0.2856445, 0.5049, -2.5, 0.5049, -1.1585366, 0.5049, -1.4634147, 0.5049, 0.1123047, 0.5049, -0.984375, 0.5049, -0.2348633, 0.5049, -13.6585369, 0.5049, -3.2926829, 0.5049, 3.4756098
0.5076, -0.1474609, 0.5076, -0.9873047, 0.5076, -0.2114258, 0.5076, -20.3048782, 0.5076, 9.6341467, 0.5076, -0.0609756, 0.5076, -0.0024414, 0.5076, -0.9790039, 0.5076, -0.3129883, 0.5076, 9.2682924, 0.5076, 6.7073174, 0.5076, 4.6951222, 0.5076, -0.0874023, 0.5076, -0.9760742, 0.5076, -0.284668, 0.5076, -2.3780489, 0.5076, -1.5243902, 0.5076, -1.5853659, 0.5076, 0.1108398, 0.5076, -0.984375, 0.5076, -0.2373047, 0.5076, -13.9634151, 0.5076, -3.2926829, 0.5076, 3.1707318
0.5103, -0.1489258, 0.5103, -0.9853516, 0.5103, -0.2045898, 0.5103, -20.1829281, 0.5103, 9.2073174, 0.5103, -0.4878049, 0.5103, -0.0019531, 0.5103, -0.9824219, 0.5103, -0.3125, 0.5103, 8.841464, 0.5103, 6.2195125, 0.5103, 4.2073174, 0.5103, -0.0839844, 0.5103, -0.9731445, 0.5103, -0.2856445, 0.5103, -2.4390244, 0.5103, -2.804878, 0.5103, -1.8902439, 0.5103, 0.1069336, 0.5103, -0.9794922, 0.5103, -0.2387695, 0.5103, -14.0853662, 0.5103, -3.5975611, 0.5103, 3.1097562
0.513, -0.1464844, 0.513, -0.987793, 0.513, -0.2041016, 0.513, -19.8780499, 0.513, 8.780488, 0.513, -0.4268293, 0.513, -0.0039062, 0.513, -0.9829102, 0.513, -0.3105469, 0.513, 9.0853662, 0.513, 5.4878049, 0.513, 4.5121951, 0.513, -0.0849609, 0.513, -0.9707031, 0.513, -0.2856445, 0.513, -2.5609756, 0.513, -3.0487804, 0.513, -1.8902439, 0.513, 0.1083984, 0.513, -0.9829102, 0.513, -0.234375, 0.513, -14.3292685, 0.513, -4.4512196, 0.513, 3.1707318
0.5157, -0.1464844, 0.5157, -0.9892578, 0.5157, -0.203125, 0.5157, -19.4512196, 0.5157, 8.2926826, 0.5157, -0.3658537, 0.5157, 0, 0.5157, -0.980957, 0.5157, -0.3105469, 0.5157, 9.2682924, 0.5157, 5.3658538, 0.5157, 4.4512196, 0.5157, -0.0854492, 0.5157, -0.9726562, 0.5157, -0.2861328, 0.5157, -2.5609756, 0.5157, -3.7195122, 0.5157, -2.0121951, 0.5157, 0.1040039, 0.5157, -0.980957, 0.5157, -0.237793, 0.5157, -14.5731707, 0.5157, -4.8780489, 0.5157, 3.1707318
0.5184, -0.1459961, 0.5184, -0.987793, 0.5184, -0.1972656, 0.5184, -19.2073174, 0.5184, 7.8048782, 0.5184, -0.4268293, 0.5184, 0.0039062, 0.5184, -0.9804688, 0.5184, -0.3041992, 0.5184, 9.8170738, 0.5184, 5.1829271, 0.5184, 4.2073174, 0.5184, -0.0825195, 0.5184, -0.9697266, 0.5184, -0.2866211, 0.5184, -2.3780489, 0.5184, -4.4512196, 0.5184, -2.1341465, 0.5184, 0.1035156, 0.5184, -0.9824219, 0.5184, -0.2363281, 0.5184, -14.6951227, 0.5184, -6.1585369, 0.5184, 3.3536587
0.5211, -0.1445312, 0.5211, -0.987793, 0.5211, -0.2001953, 0.5211, -18.9634151, 0.5211, 7.5, 0.5211, -0.5487805, 0.5211, 0.0019531, 0.5211, -0.9829102, 0.5211, -0.3022461, 0.5211, 9.7560978, 0.5211, 5.5487804, 0.5211, 4.6341462, 0.5211, -0.0776367, 0.5211, -0.9750977, 0.5211, -0.2861328, 0.5211, -2.2560976, 0.5211, -4.5731707, 0.5211, -1.8292683, 0.5211, 0.1049805, 0.5211, -0.980957, 0.5211, -0.2397461, 0.5211, -14.6341467, 0.5211, -6.5243902, 0.5211, 3.6585367
0.5238, -0.144043, 0.5238, -0.9868164, 0.5238, -0.1977539, 0.5238, -18.9634151, 0.5238, 7.4390244, 0.5238, -0.6707317, 0.5238, 0.0053711, 0.5238, -0.9863281, 0.5238, -0.3012695, 0.5238, 10.060976, 0.5238, 6.0975609, 0.5238, 4.4512196, 0.5238, -0.0795898, 0.5238, -0.9746094, 0.5238, -0.2866211, 0.5238, -2.2560976, 0.5238, -4.7560978, 0.5238, -1.8292683, 0.5238, 0.1074219, 0.5238, -0.9814453, 0.5238, -0.2358398, 0.5238, -15.1829271, 0.5238, -7.6829271, 0.5238, 3.5975611
0.5265, -0.1459961, 0.5265, -0.9863281, 0.5265, -0.1948242, 0.5265, -18.8414631, 0.5265, 7.6219516, 0.5265, -0.6707317, 0.5265, 0.0029297, 0.5265, -0.984375, 0.5265, -0.2998047, 0.5265, 10.6097565, 0.5265, 6.5243902, 0.5265, 4.390244, 0.5265, -0.0698242, 0.5265, -0.9746094, 0.5265, -0.2856445, 0.5265, -2.0731707, 0.5265, -5.0609756, 0.5265, -1.8292683, 0.5265, 0.1083984, 0.5265, -0.9853516, 0.5265, -0.2348633, 0.5265, -15.1219511, 0.5265, -7.8048782, 0.5265, 3.7195122
0.5292, -0.1455078, 0.5292, -0.9887695, 0.5292, -0.1987305, 0.5292, -18.6585369, 0.5292, 7.6219516, 0.5292, -0.5487805, 0.5292, 0.0024414, 0.5292, -0.9790039, 0.5292, -0.2998047, 0.5292, 10.7317076, 0.5292, 7.1951222, 0.5292, 4.2073174, 0.5292, -0.0673828, 0.5292, -0.9707031, 0.5292, -0.2822266, 0.5292, -1.9512196, 0.5292, -5, 0.5292, -1.7073171, 0.5292, 0.1142578, 0.5292, -0.9833984, 0.5292, -0.2348633, 0.5292, -15.060976, 0.5292, -7.7439027, 0.5292, 3.9634147
0.5319, -0.1401367, 0.5319, -0.9892578, 0.5319, -0.2060547, 0.5319, -18.7195129, 0.5319, 7.6829271, 0.5319, -0.4878049, 0.5319, 0.0058594, 0.5319, -0.9819336, 0.5319, -0.2993164, 0.5319, 10.6097565, 0.5319, 7.5609756, 0.5319, 4.2682929, 0.5319, -0.0615234, 0.5319, -0.9731445, 0.5319, -0.284668, 0.5319, -2.0731707, 0.5319, -4.5121951, 0.5319, -1.7073171, 0.5319, 0.1171875, 0.5319, -0.9868164, 0.5319, -0.2314453, 0.5319, -15.3658543, 0.5319, -7.3780489, 0.5319, 3.9024391
0.5346, -0.1450195, 0.5346, -0.9868164, 0.5346, -0.2084961, 0.5346, -18.7195129, 0.5346, 7.6829271, 0.5346, -0.6097561, 0.5346, 0.0083008, 0.5346, -0.9824219, 0.5346, -0.2998047, 0.5346, 10.8536587, 0.5346, 7.8048782, 0.5346, 4.0243902, 0.5346, -0.0585938, 0.5346, -0.9736328, 0.5346, -0.2856445, 0.5346, -2.0121951, 0.5346, -3.5975611, 0.5346, -1.5853659, 0.5346, 0.1201172, 0.5346, -0.9868164, 0.5346, -0.2299805, 0.5346, -15, 0.5346, -6.6463418, 0.5346, 3.9634147
0.5373, -0.1479492, 0.5373, -0.9833984, 0.5373, -0.2124023, 0.5373, -18.6585369, 0.5373, 8.0487804, 0.5373, -0.6097561, 0.5373, 0.0048828, 0.5373, -0.9814453, 0.5373, -0.2983398, 0.5373, 10.3658543, 0.5373, 7.8658538, 0.5373, 4.1463413, 0.5373, -0.0595703, 0.5373, -0.9731445, 0.5373, -0.2856445, 0.5373, -2.0731707, 0.5373, -3.1097562, 0.5373, -2.0121951, 0.5373, 0.1254883, 0.5373, -0.9921875, 0.5373, -0.2246094, 0.5373, -15.3048782, 0.5373, -6.0365853, 0.5373, 4.2073174
0.54, -0.1459961, 0.54, -0.9858398, 0.54, -0.2158203, 0.54, -18.780489, 0.54, 7.7439027, 0.54, -0.6707317, 0.54, 0.0039062, 0.54, -0.9819336, 0.54, -0.2983398, 0.54, 10.7926836, 0.54, 7.5609756, 0.54, 4.0853658, 0.54, -0.0546875, 0.54, -0.9746094, 0.54, -0.2827148, 0.54, -2.195122, 0.54, -1.8292683, 0.54, -1.7682927, 0.54, 0.1220703, 0.54, -0.9926758, 0.54, -0.2250977, 0.54, -15.060976, 0.54, -4.8170733, 0.54, 3.9024391
0.5427, -0.1435547, 0.5427, -0.980957, 0.5427, -0.2163086, 0.5427, -19.4512196, 0.5427, 7.9878049, 0.5427, -0.3048781, 0.5427, 0.0073242, 0.5427, -0.9814453, 0.5427, -0.296875, 0.5427, 10.8536587, 0.5427, 7.5, 0.5427, 3.9634147, 0.5427, -0.059082, 0.5427, -0.9741211, 0.5427, -0.2832031, 0.5427, -2.3170731, 0.5427, -1.2195122, 0.5427, -1.7682927, 0.5427, 0.1274414, 0.5427, -0.9936523, 0.5427, -0.222168, 0.5427, -15.1219511, 0.5427, -3.9634147, 0.5427, 4.2073174
0.5454, -0.1489258, 0.5454, -0.9858398, 0.5454, -0.2246094, 0.5454, -19.939024, 0.5454, 7.7439027, 0.5454, -0.3658537, 0.5454, -0.0009766, 0.5454, -0.9829102, 0.5454, -0.2929688, 0.5454, 10.6097565, 0.5454, 7.0731707, 0.5454, 3.9024391, 0.5454, -0.0629883, 0.5454, -0.9770508, 0.5454, -0.2822266, 0.5454, -2.4390244, 0.5454, -0.7317073, 0.5454, -2.1341465, 0.5454, 0.1259766, 0.5454, -0.9975586, 0.5454, -0.2231445, 0.5454, -14.9390249, 0.5454, -3.3536587, 0.5454, 3.9634147
0.5481, -0.1455078, 0.5481, -0.9868164, 0.5481, -0.2246094, 0.5481, -20.2439022, 0.5481, 7.7439027, 0.5481, -0.1219512, 0.5481, 0.0019531, 0.5481, -0.984375, 0.5481, -0.2954102, 0.5481, 10.9146347, 0.5481, 6.8292685, 0.5481, 3.9634147, 0.5481, -0.0620117, 0.5481, -0.9746094, 0.5481, -0.2866211, 0.5481, -2.4390244, 0.5481, -0.2439024, 0.5481, -1.8292683, 0.5481, 0.1191406, 0.5481, -0.9902344, 0.5481, -0.2260742, 0.5481, -14.7560978, 0.5481, -2.5609756, 0.5481, 3.4146342
0.5508, -0.1416016, 0.5508, -0.9868164, 0.5508, -0.2231445, 0.5508, -20.3658543, 0.5508, 7.8048782, 0.5508, -0.4268293, 0.5508, 0.0043945, 0.5508, -0.9882812, 0.5508, -0.2978516, 0.5508, 10.9146347, 0.5508, 6.5853658, 0.5508, 4.0243902, 0.5508, -0.0620117, 0.5508, -0.9755859, 0.5508, -0.2871094, 0.5508, -2.195122, 0.5508, -0.1219512, 0.5508, -1.7073171, 0.5508, 0.1171875, 0.5508, -0.9902344, 0.5508, -0.2270508, 0.5508, -14.6951227, 0.5508, -2.3170731, 0.5508, 3.3536587
0.5535, -0.1416016, 0.5535, -0.9858398, 0.5535, -0.2236328, 0.5535, -20.7317085, 0.5535, 7.8658538, 0.5535, -0.1829268, 0.5535, 0.0078125, 0.5535, -0.9853516, 0.5535, -0.3012695, 0.5535, 11.1585369, 0.5535, 6.280488, 0.5535, 3.8414636, 0.5535, -0.0737305, 0.5535, -0.9785156, 0.5535, -0.2890625, 0.5535, -2.0731707, 0.5535, -0.2439024, 0.5535, -1.7682927, 0.5535, 0.1088867, 0.5535, -0.9907227, 0.5535, -0.2294922, 0.5535, -14.7560978, 0.5535, -2.3170731, 0.5535, 3.1097562
0.5562, -0.1445312, 0.5562, -0.9916992, 0.5562, -0.2250977, 0.5562, -20.8536587, 0.5562, 7.8048782, 0.5562, -0.3048781, 0.5562, 0.0087891, 0.5562, -0.9858398, 0.5562, -0.3017578, 0.5562, 11.4634151, 0.5562, 6.1585369, 0.5562, 3.9634147, 0.5562, -0.0742188, 0.5562, -0.9755859, 0.5562, -0.2875977, 0.5562, -2.195122, 0.5562, -0.1219512, 0.5562, -1.7073171, 0.5562, 0.1030273, 0.5562, -0.9912109, 0.5562, -0.2270508, 0.5562, -14.7560978, 0.5562, -2.3170731, 0.5562, 3.5365853
0.5589, -0.1411133, 0.5589, -0.9921875, 0.5589, -0.2211914, 0.5589, -21.4024391, 0.5589, 7.9878049, 0.5589, -0.1829268, 0.5589, 0.0087891, 0.5589, -0.987793, 0.5589, -0.3076172, 0.5589, 11.219512, 0.5589, 6.5853658, 0.5589, 4.2073174, 0.5589, -0.0756836, 0.5589, -0.9799805, 0.5589, -0.2875977, 0.5589, -2.0121951, 0.5589, 0.0609756, 0.5589, -1.9512196, 0.5589, 0.0981445, 0.5589, -0.9931641, 0.5589, -0.2285156, 0.5589, -15.1829271, 0.5589, -2.7439024, 0.5589, 3.6585367
0.5616, -0.1459961, 0.5616, -0.9916992, 0.5616, -0.2163086, 0.5616, -21.4024391, 0.5616, 8.2317076, 0.5616, -0.1829268, 0.5616, 0.0068359, 0.5616, -0.9873047, 0.5616, -0.3105469, 0.5616, 11.0365858, 0.5616, 6.8292685, 0.5616, 4.0243902, 0.5616, -0.0820312, 0.5616, -0.9765625, 0.5616, -0.2875977, 0.5616, -1.9512196, 0.5616, 0.1829268, 0.5616, -1.5243902, 0.5616, 0.0961914, 0.5616, -0.9941406, 0.5616, -0.2255859, 0.5616, -15.1829271, 0.5616, -3.0487804, 0.5616, 3.9634147
0.5643, -0.1455078, 0.5643, -0.9926758, 0.5643, -0.2128906, 0.5643, -21.5853672, 0.5643, 8.2926826, 0.5643, -0.3658537, 0.5643, 0.0058594, 0.5643, -0.9829102, 0.5643, -0.3154297, 0.5643, 10.8536587, 0.5643, 6.9512196, 0.5643, 3.9634147, 0.5643, -0.0830078, 0.5643, -0.9770508, 0.5643, -0.2895508, 0.5643, -2.0121951, 0.5643, 0.4268293, 0.5643, -1.6463414, 0.5643, 0.0966797, 0.5643, -0.9941406, 0.5643, -0.2226562, 0.5643, -15, 0.5643, -3.9634147, 0.5643, 4.0243902
0.567, -0.1459961, 0.567, -0.9921875, 0.567, -0.2080078, 0.567, -21.3414631, 0.567, 8.4146347, 0.567, -0.4268293, 0.567, 0.0087891, 0.567, -0.9848633, 0.567, -0.3188477, 0.567, 10.7926836, 0.567, 7.6829271, 0.567, 4.1463413, 0.567, -0.0825195, 0.567, -0.9790039, 0.567, -0.2875977, 0.567, -2.0731707, 0.567, 0.2439024, 0.567, -1.4634147, 0.567, 0.0966797, 0.567, -0.9995117, 0.567, -0.2236328, 0.567, -14.5121956, 0.567, -4.5731707, 0.567, 4.390244
0.5697, -0.1489258, 0.5697, -0.9980469, 0.5697, -0.2055664, 0.5697, -21.280489, 0.5697, 8.1707315, 0.5697, -0.1219512, 0.5697, 0.0048828, 0.5697, -0.9829102, 0.5697, -0.3178711, 0.5697, 10.7317076, 0.5697, 7.6219516, 0.5697, 4.0243902, 0.5697, -0.0839844, 0.5697, -0.9780273, 0.5697, -0.2851562, 0.5697, -1.9512196, 0.5697, -0.6097561, 0.5697, -1.4634147, 0.5697, 0.0986328, 0.5697, -0.9975586, 0.5697, -0.2255859, 0.5697, -14.2073174, 0.5697, -5.2439027, 0.5697, 4.5731707
0.5724, -0.1484375, 0.5724, -0.9970703, 0.5724, -0.2041016, 0.5724, -20.9146347, 0.5724, 7.9878049, 0.5724, -0.0609756, 0.5724, 0.0039062, 0.5724, -0.9819336, 0.5724, -0.3178711, 0.5724, 10.2439022, 0.5724, 7.6219516, 0.5724, 3.9024391, 0.5724, -0.0844727, 0.5724, -0.9770508, 0.5724, -0.2856445, 0.5724, -1.7682927, 0.5724, -0.6097561, 0.5724, -1.7682927, 0.5724, 0.1079102, 0.5724, -0.9941406, 0.5724, -0.230957, 0.5724, -14.0853662, 0.5724, -5.670732, 0.5724, 4.5121951
0.5751, -0.1479492, 0.5751, -0.9946289, 0.5751, -0.2060547, 0.5751, -20.6707325, 0.5751, 8.0487804, 0.5751, -0.3658537, 0.5751, 0, 0.5751, -0.9819336, 0.5751, -0.3188477, 0.5751, 9.7560978, 0.5751, 7.5609756, 0.5751, 4.1463413, 0.5751, -0.0834961, 0.5751, -0.9770508, 0.5751, -0.2885742, 0.5751, -2.0121951, 0.5751, -1.8292683, 0.5751, -1.402439, 0.5751, 0.109375, 0.5751, -0.9912109, 0.5751, -0.2353516, 0.5751, -13.780488, 0.5751, -6.4634147, 0.5751, 4.390244
0.5778, -0.1479492, 0.5778, -0.9912109, 0.5778, -0.2045898, 0.5778, -20.3048782, 0.5778, 7.9268293, 0.5778, -0.0609756, 0.5778, 0.0004883, 0.5778, -0.9804688, 0.5778, -0.315918, 0.5778, 9.2682924, 0.5778, 7.3170733, 0.5778, 4.2682929, 0.5778, -0.0834961, 0.5778, -0.9780273, 0.5778, -0.2880859, 0.5778, -2.1341465, 0.5778, -2.0731707, 0.5778, -1.6463414, 0.5778, 0.1176758, 0.5778, -0.9868164, 0.5778, -0.2441406, 0.5778, -13.9024391, 0.5778, -6.5243902, 0.5778, 4.1463413
0.5805, -0.1474609, 0.5805, -0.9916992, 0.5805, -0.2050781, 0.5805, -19.8780499, 0.5805, 8.2926826, 0.5805, -0.1829268, 0.5805, 0.0014648, 0.5805, -0.980957, 0.5805, -0.3149414, 0.5805, 9.3902445, 0.5805, 7.2560978, 0.5805, 4.1463413, 0.5805, -0.0834961, 0.5805, -0.9760742, 0.5805, -0.2880859, 0.5805, -2.0121951, 0.5805, -2.0731707, 0.5805, -1.5853659, 0.5805, 0.1166992, 0.5805, -0.9897461, 0.5805, -0.2421875, 0.5805, -14.3902445, 0.5805, -6.6463418, 0.5805, 4.2073174
0.5832, -0.1479492, 0.5832, -0.9907227, 0.5832, -0.2075195, 0.5832, -19.6341476, 0.5832, 8.4756098, 0.5832, -0.3658537, 0.5832, 0.0009766, 0.5832, -0.9819336, 0.5832, -0.3134766, 0.5832, 9.2073174, 0.5832, 7.1951222, 0.5832, 3.9634147, 0.5832, -0.0805664, 0.5832, -0.9780273, 0.5832, -0.2880859, 0.5832, -2.0731707, 0.5832, -1.9512196, 0.5832, -1.7682927, 0.5832, 0.1245117, 0.5832, -0.9853516, 0.5832, -0.2387695, 0.5832, -15.2439032, 0.5832, -5.9146342, 0.5832, 3.8414636
0.5859, -0.1479492, 0.5859, -0.9941406, 0.5859, -0.2055664, 0.5859, -19.6341476, 0.5859, 8.5975609, 0.5859, -0.3048781, 0.5859, -0.0019531, 0.5859, -0.9853516, 0.5859, -0.3139648, 0.5859, 9.2073174, 0.5859, 7.0731707, 0.5859, 4.3292685, 0.5859, -0.0766602, 0.5859, -0.9775391, 0.5859, -0.284668, 0.5859, -2.0731707, 0.5859, -1.2804878, 0.5859, -1.5243902, 0.5859, 0.121582, 0.5859, -0.9882812, 0.5859, -0.2373047, 0.5859, -15.3658543, 0.5859, -5.4268293, 0.5859, 3.9024391
0.5886, -0.1464844, 0.5886, -0.9907227, 0.5886, -0.206543, 0.5886, -19.1463413, 0.5886, 8.3536587, 0.5886, -0.1219512, 0.5886, 0, 0.5886, -0.9863281, 0.5886, -0.3144531, 0.5886, 9.5731707, 0.5886, 6.8292685, 0.5886, 4.1463413, 0.5886, -0.0717773, 0.5886, -0.972168, 0.5886, -0.2871094, 0.5886, -1.9512196, 0.5886, -0.9756098, 0.5886, -1.8292683, 0.5886, 0.1225586, 0.5886, -0.9931641, 0.5886, -0.2319336, 0.5886, -15.4878054, 0.5886, -4.5121951, 0.5886, 3.6585367
0.5913, -0.1499023, 0.5913, -0.9907227, 0.5913, -0.2045898, 0.5913, -19.1463413, 0.5913, 8.3536587, 0.5913, -0.0609756, 0.5913, 0.0024414, 0.5913, -0.9799805, 0.5913, -0.3115234, 0.5913, 9.6951218, 0.5913, 6.5243902, 0.5913, 4.3292685, 0.5913, -0.0722656, 0.5913, -0.9746094, 0.5913, -0.2856445, 0.5913, -1.7682927, 0.5913, -0.7317073, 0.5913, -1.9512196, 0.5913, 0.121582, 0.5913, -0.9960938, 0.5913, -0.2275391, 0.5913, -15.3658543, 0.5913, -4.0243902, 0.5913, 3.8414636
0.594, -0.1464844, 0.594, -0.9921875, 0.594, -0.2055664, 0.594, -18.9024391, 0.594, 8.1707315, 0.594, -0.3048781, 0.594, 0.0024414, 0.594, -0.9790039, 0.594, -0.3105469, 0.594, 9.8780489, 0.594, 6.5243902, 0.594, 4.5121951, 0.594, -0.0737305, 0.594, -0.9770508, 0.594, -0.2841797, 0.594, -1.4634147, 0.594, -0.5487805, 0.594, -1.9512196, 0.594, 0.1201172, 0.594, -0.9926758, 0.594, -0.2250977, 0.594, -14.9390249, 0.594, -3.2317073, 0.594, 3.6585367
0.5967, -0.1469727, 0.5967, -0.9916992, 0.5967, -0.2114258, 0.5967, -18.9634151, 0.5967, 7.8658538, 0.5967, -0.1829268, 0.5967, 0.0068359, 0.5967, -0.984375, 0.5967, -0.3100586, 0.5967, 10.2439022, 0.5967, 6.4024391, 0.5967, 4.6341462, 0.5967, -0.0703125, 0.5967, -0.9746094, 0.5967, -0.2841797, 0.5967, -1.7682927, 0.5967, -1.2195122, 0.5967, -2.0731707, 0.5967, 0.1152344, 0.5967, -0.9931641, 0.5967, -0.2236328, 0.5967, -14.7560978, 0.5967, -3.1707318, 0.5967, 3.7195122
0.5994, -0.1381836, 0.5994, -0.9916992, 0.5994, -0.2089844, 0.5994, -19.2073174, 0.5994, 7.3780489, 0.5994, -0.3048781, 0.5994, 0.0029297, 0.5994, -0.9833984, 0.5994, -0.3095703, 0.5994, 10.1829271, 0.5994, 6.1585369, 0.5994, 4.5731707, 0.5994, -0.0708008, 0.5994, -0.9741211, 0.5994, -0.2807617, 0.5994, -1.7073171, 0.5994, -1.402439, 0.5994, -1.6463414, 0.5994, 0.1123047, 0.5994, -0.9887695, 0.5994, -0.2299805, 0.5994, -14.2682934, 0.5994, -2.9878049, 0.5994, 3.4146342
0.6021, -0.1401367, 0.6021, -0.9960938, 0.6021, -0.2109375, 0.6021, -19.1463413, 0.6021, 7.0121951, 0.6021, -0.1219512, 0.6021, 0.0083008, 0.6021, -0.9833984, 0.6021, -0.3105469, 0.6021, 9.8780489, 0.6021, 6.4024391, 0.6021, 4.390244, 0.6021, -0.0737305, 0.6021, -0.9711914, 0.6021, -0.2832031, 0.6021, -1.9512196, 0.6021, -1.5853659, 0.6021, -1.9512196, 0.6021, 0.1108398, 0.6021, -0.9838867, 0.6021, -0.2392578, 0.6021, -14.2073174, 0.6021, -2.9268293, 0.6021, 3.4756098
0.6048, -0.144043, 0.6048, -0.9892578, 0.6048, -0.2084961, 0.6048, -19.2682934, 0.6048, 6.5243902, 0.6048, -0.4268293, 0.6048, 0.0107422, 0.6048, -0.9829102, 0.6048, -0.3100586, 0.6048, 9.7560978, 0.6048, 6.5853658, 0.6048, 4.390244, 0.6048, -0.0673828, 0.6048, -0.9682617, 0.6048, -0.284668, 0.6048, -2.0121951, 0.6048, -1.402439, 0.6048, -2.0121951, 0.6048, 0.1074219, 0.6048, -0.9824219, 0.6048, -0.2368164, 0.6048, -14.6951227, 0.6048, -2.9268293, 0.6048, 3.6585367
0.6075, -0.1386719, 0.6075, -0.987793, 0.6075, -0.2084961, 0.6075, -19.5731716, 0.6075, 6.3414636, 0.6075, -0.4268293, 0.6075, 0.0092773, 0.6075, -0.980957, 0.6075, -0.3076172, 0.6075, 9.6951218, 0.6075, 7.0121951, 0.6075, 4.7560978, 0.6075, -0.0698242, 0.6075, -0.9697266, 0.6075, -0.2871094, 0.6075, -1.7682927, 0.6075, -0.6707317, 0.6075, -1.9512196, 0.6075, 0.1064453, 0.6075, -0.9848633, 0.6075, -0.2368164, 0.6075, -14.6951227, 0.6075, -3.1097562, 0.6075, 3.6585367
0.6102, -0.1352539, 0.6102, -0.9902344, 0.6102, -0.206543, 0.6102, -19.8170738, 0.6102, 5.9756098, 0.6102, -0.4878049, 0.6102, 0.0146484, 0.6102, -0.9785156, 0.6102, -0.3056641, 0.6102, 9.8170738, 0.6102, 6.7682929, 0.6102, 4.7560978, 0.6102, -0.0678711, 0.6102, -0.96875, 0.6102, -0.2832031, 0.6102, -2.0121951, 0.6102, 0.3658537, 0.6102, -1.6463414, 0.6102, 0.1064453, 0.6102, -0.9882812, 0.6102, -0.2382812, 0.6102, -15.2439032, 0.6102, -3.4756098, 0.6102, 3.9024391
0.6129, -0.1357422, 0.6129, -0.9902344, 0.6129, -0.203125, 0.6129, -19.8170738, 0.6129, 6.0365853, 0.6129, -0.4268293, 0.6129, 0.0126953, 0.6129, -0.9838867, 0.6129, -0.3051758, 0.6129, 9.8780489, 0.6129, 7.5609756, 0.6129, 4.6341462, 0.6129, -0.0698242, 0.6129, -0.9702148, 0.6129, -0.28125, 0.6129, -2.0731707, 0.6129, 0.3048781, 0.6129, -1.7682927, 0.6129, 0.1074219, 0.6129, -0.9960938, 0.6129, -0.2348633, 0.6129, -15.2439032, 0.6129, -3.6585367, 0.6129, 3.7195122
0.6156, -0.1313477, 0.6156, -0.9926758, 0.6156, -0.2045898, 0.6156, -19.5121956, 0.6156, 6.4634147, 0.6156, 0, 0.6156, 0.0136719, 0.6156, -0.9824219, 0.6156, -0.3037109, 0.6156, 9.8170738, 0.6156, 7.7439027, 0.6156, 4.5121951, 0.6156, -0.0732422, 0.6156, -0.972168, 0.6156, -0.2768555, 0.6156, -2.1341465, 0.6156, 0.4268293, 0.6156, -1.402439, 0.6156, 0.109375, 0.6156, -0.9946289, 0.6156, -0.2329102, 0.6156, -14.8170738, 0.6156, -3.2926829, 0.6156, 3.7195122
0.6183, -0.1259766, 0.6183, -0.9936523, 0.6183, -0.2055664, 0.6183, -19.6951218, 0.6183, 6.890244, 0.6183, -0.3658537, 0.6183, 0.0131836, 0.6183, -0.984375, 0.6183, -0.2978516, 0.6183, 9.5121956, 0.6183, 8.4756098, 0.6183, 4.390244, 0.6183, -0.0683594, 0.6183, -0.96875, 0.6183, -0.28125, 0.6183, -2.195122, 0.6183, 0.2439024, 0.6183, -1.5853659, 0.6183, 0.112793, 0.6183, -0.9936523, 0.6183, -0.2319336, 0.6183, -14.5121956, 0.6183, -3.1097562, 0.6183, 3.9024391
0.621, -0.1240234, 0.621, -0.9926758, 0.621, -0.2011719, 0.621, -19.6951218, 0.621, 7.4390244, 0.621, -0.4268293, 0.621, 0.0083008, 0.621, -0.9838867, 0.621, -0.2973633, 0.621, 9.6341467, 0.621, 8.4146347, 0.621, 4.8170733, 0.621, -0.0673828, 0.621, -0.9716797, 0.621, -0.2822266, 0.621, -1.8902439, 0.621, -0.0609756, 0.621, -1.402439, 0.621, 0.1123047, 0.621, -0.9931641, 0.621, -0.2285156, 0.621, -14.0243902, 0.621, -2.5, 0.621, 3.9634147
0.6237, -0.1269531, 0.6237, -0.9985352, 0.6237, -0.2006836, 0.6237, -19.2682934, 0.6237, 8.2317076, 0.6237, -0.3658537, 0.6237, 0.0092773, 0.6237, -0.9858398, 0.6237, -0.2963867, 0.6237, 10.1219511, 0.6237, 8.9634151, 0.6237, 5.0609756, 0.6237, -0.0673828, 0.6237, -0.9765625, 0.6237, -0.2788086, 0.6237, -2.2560976, 0.6237, -0.3048781, 0.6237, -1.4634147, 0.6237, 0.1103516, 0.6237, -0.9936523, 0.6237, -0.2338867, 0.6237, -14.2073174, 0.6237, -1.9512196, 0.6237, 4.0243902
0.6264, -0.1240234, 0.6264, -0.9956055, 0.6264, -0.2026367, 0.6264, -19.0853672, 0.6264, 8.9634151, 0.6264, -0.3658537, 0.6264, 0.0107422, 0.6264, -0.9868164, 0.6264, -0.2944336, 0.6264, 10.060976, 0.6264, 9.3292685, 0.6264, 5, 0.6264, -0.0668945, 0.6264, -0.9794922, 0.6264, -0.2763672, 0.6264, -2.0731707, 0.6264, 0.3048781, 0.6264, -1.7682927, 0.6264, 0.1137695, 0.6264, -0.9912109, 0.6264, -0.2363281, 0.6264, -14.0243902, 0.6264, -1.5243902, 0.6264, 4.0243902
0.6291, -0.1289062, 0.6291, -0.9975586, 0.6291, -0.203125, 0.6291, -18.9024391, 0.6291, 9.6341467, 0.6291, -0.2439024, 0.6291, 0.0078125, 0.6291, -0.9848633, 0.6291, -0.2905273, 0.6291, 10.1219511, 0.6291, 9.9390249, 0.6291, 5.1829271, 0.6291, -0.0668945, 0.6291, -0.9785156, 0.6291, -0.277832, 0.6291, -2.2560976, 0.6291, 0.1219512, 0.6291, -1.402439, 0.6291, 0.1103516, 0.6291, -0.9887695, 0.6291, -0.2270508, 0.6291, -14.2073174, 0.6291, -0.9756098, 0.6291, 4.2682929
0.6318, -0.1245117, 0.6318, -0.9916992, 0.6318, -0.2011719, 0.6318, -18.5975609, 0.6318, 10.6707315, 0.6318, -0.2439024, 0.6318, 0.0073242, 0.6318, -0.9863281, 0.6318, -0.2924805, 0.6318, 10.1829271, 0.6318, 10.060976, 0.6318, 5.4268293, 0.6318, -0.0683594, 0.6318, -0.9814453, 0.6318, -0.2783203, 0.6318, -2.0121951, 0.6318, 0.3658537, 0.6318, -1.7073171, 0.6318, 0.1079102, 0.6318, -0.9863281, 0.6318, -0.2275391, 0.6318, -14.0853662, 0.6318, -0.9146342, 0.6318, 4.0853658
0.6345, -0.1259766, 0.6345, -0.9921875, 0.6345, -0.2045898, 0.6345, -18.780489, 0.6345, 11.219512, 0.6345, -0.2439024, 0.6345, 0.0087891, 0.6345, -0.9892578, 0.6345, -0.2910156, 0.6345, 10.6707315, 0.6345, 11.0365858, 0.6345, 5.3658538, 0.6345, -0.0737305, 0.6345, -0.9814453, 0.6345, -0.2758789, 0.6345, -1.8292683, 0.6345, 0.6707317, 0.6345, -1.7073171, 0.6345, 0.1069336, 0.6345, -0.984375, 0.6345, -0.2338867, 0.6345, -14.2073174, 0.6345, -0.6707317, 0.6345, 3.7804878
0.6372, -0.1308594, 0.6372, -0.9926758, 0.6372, -0.2026367, 0.6372, -18.5975609, 0.6372, 11.9512196, 0.6372, -0.0609756, 0.6372, 0.0097656, 0.6372, -0.9882812, 0.6372, -0.2919922, 0.6372, 11.1585369, 0.6372, 11.0975609, 0.6372, 5.2439027, 0.6372, -0.0722656, 0.6372, -0.9765625, 0.6372, -0.2792969, 0.6372, -2.0121951, 0.6372, 0.4268293, 0.6372, -1.5243902, 0.6372, 0.0996094, 0.6372, -0.980957, 0.6372, -0.2358398, 0.6372, -14.3292685, 0.6372, -0.9756098, 0.6372, 3.9634147
0.6399, -0.137207, 0.6399, -0.9941406, 0.6399, -0.2026367, 0.6399, -18.5975609, 0.6399, 12.3780489, 0.6399, 0.1219512, 0.6399, 0.0048828, 0.6399, -0.9873047, 0.6399, -0.2929688, 0.6399, 11.4024391, 0.6399, 11.8292685, 0.6399, 5.7317076, 0.6399, -0.0722656, 0.6399, -0.9760742, 0.6399, -0.2792969, 0.6399, -2.0121951, 0.6399, 0, 0.6399, -1.5853659, 0.6399, 0.0952148, 0.6399, -0.9819336, 0.6399, -0.2387695, 0.6399, -14.3902445, 0.6399, -1.4634147, 0.6399, 3.8414636
0.6426, -0.1342773, 0.6426, -0.9936523, 0.6426, -0.2021484, 0.6426, -18.5365849, 0.6426, 12.4390249, 0.6426, 0, 0.6426, 0.0024414, 0.6426, -0.9882812, 0.6426, -0.2963867, 0.6426, 11.4634151, 0.6426, 11.9512196, 0.6426, 5.3658538, 0.6426, -0.0732422, 0.6426, -0.9750977, 0.6426, -0.2807617, 0.6426, -1.8292683, 0.6426, -1.0365853, 0.6426, -1.5853659, 0.6426, 0.0947266, 0.6426, -0.980957, 0.6426, -0.2392578, 0.6426, -14.8780489, 0.6426, -2.0731707, 0.6426, 3.7195122
0.6453, -0.1352539, 0.6453, -0.9931641, 0.6453, -0.2041016, 0.6453, -18.4146347, 0.6453, 12.560976, 0.6453, 0, 0.6453, -0.0004883, 0.6453, -0.9873047, 0.6453, -0.2993164, 0.6453, 12.0121956, 0.6453, 12.1951218, 0.6453, 5.609756, 0.6453, -0.0800781, 0.6453, -0.9707031, 0.6453, -0.2875977, 0.6453, -1.9512196, 0.6453, -1.5853659, 0.6453, -1.3414634, 0.6453, 0.0927734, 0.6453, -0.9848633, 0.6453, -0.2426758, 0.6453, -15.1829271, 0.6453, -3.3536587, 0.6453, 3.9024391
0.648, -0.1430664, 0.648, -0.9916992, 0.648, -0.2060547, 0.648, -18.8414631, 0.648, 12.3170738, 0.648, -0.0609756, 0.648, -0.0019531, 0.648, -0.9853516, 0.648, -0.2988281, 0.648, 11.8902445, 0.648, 12.1341467, 0.648, 5.3658538, 0.648, -0.0786133, 0.648, -0.9702148, 0.648, -0.2866211, 0.648, -2.0731707, 0.648, -2.0731707, 0.648, -1.2195122, 0.648, 0.0952148, 0.648, -0.9853516, 0.648, -0.2358398, 0.648, -15.3048782, 0.648, -4.0853658, 0.648, 3.9634147
0.6507, -0.144043, 0.6507, -0.9941406, 0.6507, -0.2055664, 0.6507, -18.780489, 0.6507, 11.9512196, 0.6507, 0.3048781, 0.6507, -0.0004883, 0.6507, -0.9814453, 0.6507, -0.3071289, 0.6507, 11.8292685, 0.6507, 11.8292685, 0.6507, 5.670732, 0.6507, -0.0825195, 0.6507, -0.96875, 0.6507, -0.2841797, 0.6507, -1.7682927, 0.6507, -2.3170731, 0.6507, -1.2195122, 0.6507, 0.0966797, 0.6507, -0.9892578, 0.6507, -0.2255859, 0.6507, -16.1585369, 0.6507, -4.6951222, 0.6507, 3.8414636
0.6534, -0.1420898, 0.6534, -0.9863281, 0.6534, -0.2104492, 0.6534, -19.1463413, 0.6534, 11.4024391, 0.6534, 0.1219512, 0.6534, -0.0039062, 0.6534, -0.9765625, 0.6534, -0.3110352, 0.6534, 11.4634151, 0.6534, 11.7073174, 0.6534, 5.4878049, 0.6534, -0.0795898, 0.6534, -0.9697266, 0.6534, -0.2895508, 0.6534, -1.8292683, 0.6534, -2.3170731, 0.6534, -1.1585366, 0.6534, 0.1035156, 0.6534, -0.9921875, 0.6534, -0.2138672, 0.6534, -16.4024391, 0.6534, -5.1829271, 0.6534, 4.2682929
0.6561, -0.1425781, 0.6561, -0.9892578, 0.6561, -0.2128906, 0.6561, -19.3292694, 0.6561, 10.7317076, 0.6561, 0.4878049, 0.6561, -0.0009766, 0.6561, -0.9780273, 0.6561, -0.3115234, 0.6561, 11.0975609, 0.6561, 10.5487804, 0.6561, 5.609756, 0.6561, -0.0874023, 0.6561, -0.9682617, 0.6561, -0.2924805, 0.6561, -1.8292683, 0.6561, -1.9512196, 0.6561, -1.5243902, 0.6561, 0.1000977, 0.6561, -0.9960938, 0.6561, -0.2119141, 0.6561, -15.8536587, 0.6561, -5.670732, 0.6561, 4.2682929
0.6588, -0.1425781, 0.6588, -0.9848633, 0.6588, -0.2089844, 0.6588, -19.8780499, 0.6588, 10.2439022, 0.6588, 0.6707317, 0.6588, -0.0004883, 0.6588, -0.9814453, 0.6588, -0.3100586, 0.6588, 11.0975609, 0.6588, 10.060976, 0.6588, 5.4268293, 0.6588, -0.0844727, 0.6588, -0.9692383, 0.6588, -0.293457, 0.6588, -1.7682927, 0.6588, -2.2560976, 0.6588, -1.5853659, 0.6588, 0.1074219, 0.6588, -0.9980469, 0.6588, -0.2128906, 0.6588, -15.1829271, 0.6588, -5.7317076, 0.6588, 4.4512196
0.6615, -0.1450195, 0.6615, -0.9882812, 0.6615, -0.206543, 0.6615, -19.7560978, 0.6615, 9.3902445, 0.6615, 0.7317073, 0.6615, 0.003418, 0.6615, -0.9794922, 0.6615, -0.3095703, 0.6615, 10.4878054, 0.6615, 9.1463413, 0.6615, 5.670732, 0.6615, -0.0791016, 0.6615, -0.9755859, 0.6615, -0.2910156, 0.6615, -1.6463414, 0.6615, -2.5609756, 0.6615, -1.8292683, 0.6615, 0.1103516, 0.6615, -0.996582, 0.6615, -0.2167969, 0.6615, -14.0853662, 0.6615, -5.609756, 0.6615, 4.6341462
0.6642, -0.1450195, 0.6642, -0.9887695, 0.6642, -0.2070312, 0.6642, -19.939024, 0.6642, 8.5975609, 0.6642, 0.6097561, 0.6642, 0, 0.6642, -0.9780273, 0.6642, -0.3120117, 0.6642, 10.3048782, 0.6642, 8.5365858, 0.6642, 5.5487804, 0.6642, -0.0732422, 0.6642, -0.9750977, 0.6642, -0.2958984, 0.6642, -1.6463414, 0.6642, -2.9268293, 0.6642, -1.5853659, 0.6642, 0.1132812, 0.6642, -0.9912109, 0.6642, -0.2255859, 0.6642, -13.5365858, 0.6642, -5.3048782, 0.6642, 4.3292685
0.6669, -0.1450195, 0.6669, -0.987793, 0.6669, -0.2075195, 0.6669, -19.8170738, 0.6669, 8.5975609, 0.6669, 0.4878049, 0.6669, 0.0024414, 0.6669, -0.9780273, 0.6669, -0.3105469, 0.6669, 9.7560978, 0.6669, 8.0487804, 0.6669, 5.2439027, 0.6669, -0.0727539, 0.6669, -0.9794922, 0.6669, -0.2944336, 0.6669, -1.2195122, 0.6669, -2.7439024, 0.6669, -1.7073171, 0.6669, 0.1157227, 0.6669, -0.9887695, 0.6669, -0.2348633, 0.6669, -13.3536587, 0.6669, -5.3658538, 0.6669, 4.6951222
0.6696, -0.144043, 0.6696, -0.9887695, 0.6696, -0.2094727, 0.6696, -19.7560978, 0.6696, 8.5365858, 0.6696, 0.4878049, 0.6696, 0.0024414, 0.6696, -0.9785156, 0.6696, -0.3071289, 0.6696, 9.6951218, 0.6696, 7.9878049, 0.6696, 5.1219511, 0.6696, -0.0737305, 0.6696, -0.9804688, 0.6696, -0.2929688, 0.6696, -1.1585366, 0.6696, -2.8658538, 0.6696, -1.8902439, 0.6696, 0.1206055, 0.6696, -0.987793, 0.6696, -0.2460938, 0.6696, -14.0853662, 0.6696, -5.3048782, 0.6696, 4.6341462
0.6723, -0.144043, 0.6723, -0.9907227, 0.6723, -0.2084961, 0.6723, -19.8170738, 0.6723, 8.5365858, 0.6723, 0.4268293, 0.6723, 0.003418, 0.6723, -0.9794922, 0.6723, -0.3071289, 0.6723, 9.3902445, 0.6723, 7.6219516, 0.6723, 5.1829271, 0.6723, -0.0712891, 0.6723, -0.9785156, 0.6723, -0.2910156, 0.6723, -1.2195122, 0.6723, -2.3170731, 0.6723, -1.5853659, 0.6723, 0.1220703, 0.6723, -0.9853516, 0.6723, -0.2460938, 0.6723, -14.7560978, 0.6723, -5.7317076, 0.6723, 4.4512196
0.675, -0.1425781, 0.675, -0.9892578, 0.675, -0.2114258, 0.675, -19.6951218, 0.675, 9.2682924, 0.675, 0.5487805, 0.675, 0.0087891, 0.675, -0.9804688, 0.675, -0.3056641, 0.675, 9.4512196, 0.675, 7.8658538, 0.675, 5.2439027, 0.675, -0.0742188, 0.675, -0.9780273, 0.675, -0.2939453, 0.675, -0.8536586, 0.675, -2.1341465, 0.675, -1.7073171, 0.675, 0.1254883, 0.675, -0.9853516, 0.675, -0.2407227, 0.675, -15.4878054, 0.675, -5.9756098, 0.675, 5.1219511
0.6777, -0.1411133, 0.6777, -0.9873047, 0.6777, -0.2148438, 0.6777, -19.3902435, 0.6777, 9.3902445, 0.6777, 0.4268293, 0.6777, 0.0078125, 0.6777, -0.9804688, 0.6777, -0.3032227, 0.6777, 9.5731707, 0.6777, 7.9268293, 0.6777, 5.1829271, 0.6777, -0.0732422, 0.6777, -0.9804688, 0.6777, -0.293457, 0.6777, -1.097561, 0.6777, -1.4634147, 0.6777, -1.2195122, 0.6777, 0.1254883, 0.6777, -0.9853516, 0.6777, -0.237793, 0.6777, -15.8536587, 0.6777, -5.9756098, 0.6777, 5.2439027
0.6804, -0.1435547, 0.6804, -0.9853516, 0.6804, -0.2163086, 0.6804, -19.7560978, 0.6804, 10.2439022, 0.6804, 0.5487805, 0.6804, 0.0083008, 0.6804, -0.9765625, 0.6804, -0.3012695, 0.6804, 9.8170738, 0.6804, 8.1097565, 0.6804, 5.1219511, 0.6804, -0.0722656, 0.6804, -0.9731445, 0.6804, -0.2924805, 0.6804, -1.0365853, 0.6804, -1.2804878, 0.6804, -1.5853659, 0.6804, 0.1318359, 0.6804, -0.9863281, 0.6804, -0.2338867, 0.6804, -16.280489, 0.6804, -5.609756, 0.6804, 5.0609756
